e_no,c,k1,k2,k3,k4,ax,ay,az,bx,by,bz,pvol,m_g,m_c
1,0.0228,0.132,3.45,0.132,3.45,0.03917762530710924,0.0,0.999232262126927,-0.03917762530710924,0.0,-0.999232262126927,1e-05,1.0,1.0, 1.0
2,0.0228,0.132,3.45,0.132,3.45,0.11712071132733942,0.0,0.9931176863686287,-0.11712071132733942,0.0,-0.9931176863686287,1e-05,1.0,1.0, 1.0
3,0.0228,0.132,3.45,0.132,3.45,0.19432460320491968,0.0,0.9809372806603134,-0.19432460320491968,0.0,-0.9809372806603134,1e-05,1.0,1.0, 1.0
4,0.0228,0.132,3.45,0.132,3.45,0.2702541482566745,0.0,0.9627890191262358,-0.2702541482566745,0.0,-0.9627890191262358,1e-05,1.0,1.0, 1.0
5,0.0228,0.132,3.45,0.132,3.45,0.34405249656677367,0.0,0.9389504138164966,-0.34405249656677367,0.0,-0.9389504138164966,1e-05,1.0,1.0, 1.0
6,0.0228,0.132,3.45,0.132,3.45,0.4147776715604074,0.0,0.9099227896777433,-0.4147776715604074,0.0,-0.9099227896777433,1e-05,1.0,1.0, 1.0
7,0.0228,0.132,3.45,0.132,3.45,0.4815704137599341,0.0,0.8764074033182776,-0.4815704137599341,0.0,-0.8764074033182776,1e-05,1.0,1.0, 1.0
8,0.0228,0.132,3.45,0.132,3.45,0.5436413592776164,0.0,0.8393176231217747,-0.5436413592776165,0.0,-0.8393176231217746,1e-05,1.0,1.0, 1.0
9,0.0228,0.132,3.45,0.132,3.45,0.6001463998484257,0.0,0.7998901791802256,-0.6001463998484258,0.0,-0.7998901791802255,1e-05,1.0,1.0, 1.0
10,0.0228,0.132,3.45,0.132,3.45,0.6497257153551343,0.0,0.7601687278534014,-0.6497257153551346,0.0,-0.7601687278534014,1e-05,1.0,1.0, 1.0
11,0.0228,0.132,3.45,0.132,3.45,0.6899190959232491,0.0,0.7238864835597131,-0.6899190959232491,0.0,-0.7238864835597131,1e-05,1.0,1.0, 1.0
12,0.0228,0.132,3.45,0.132,3.45,0.03736635406799144,0.0,0.9993016339342518,-0.03736635406799144,0.0,-0.9993016339342518,1e-05,1.0,1.0, 1.0
13,0.0228,0.132,3.45,0.132,3.45,0.11188455055968492,0.0,0.9937212120841828,-0.11188455055968483,0.0,-0.9937212120841828,1e-05,1.0,1.0, 1.0
14,0.0228,0.132,3.45,0.132,3.45,0.1860613436400598,0.0,0.9825381297450271,-0.1860613436400598,0.0,-0.9825381297450271,1e-05,1.0,1.0, 1.0
15,0.0228,0.132,3.45,0.132,3.45,0.2594973836195135,0.0,0.9657438106944446,-0.2594973836195135,0.0,-0.9657438106944446,1e-05,1.0,1.0, 1.0
16,0.0228,0.132,3.45,0.132,3.45,0.33143633762337726,0.0,0.943477585373814,-0.33143633762337726,0.0,-0.943477585373814,1e-05,1.0,1.0, 1.0
17,0.0228,0.132,3.45,0.132,3.45,0.4009960802548506,0.0,0.9160797692451491,-0.4009960802548506,0.0,-0.9160797692451491,1e-05,1.0,1.0, 1.0
18,0.0228,0.132,3.45,0.132,3.45,0.46731366015634324,0.0,0.8840915919921881,-0.4673136601563431,0.0,-0.8840915919921881,1e-05,1.0,1.0, 1.0
19,0.0228,0.132,3.45,0.132,3.45,0.5295950685363805,0.0,0.8482505899685224,-0.5295950685363806,0.0,-0.8482505899685225,1e-05,1.0,1.0, 1.0
20,0.0228,0.132,3.45,0.132,3.45,0.5871406564133557,0.0,0.8094849285727893,-0.5871406564133557,0.0,-0.8094849285727893,1e-05,1.0,1.0, 1.0
21,0.0228,0.132,3.45,0.132,3.45,0.6392861826423851,0.0,0.7689689048866195,-0.6392861826423851,0.0,-0.7689689048866196,1e-05,1.0,1.0, 1.0
22,0.0228,0.132,3.45,0.132,3.45,0.6856718377633035,0.0,0.7279107987235072,-0.6856718377633035,0.0,-0.7279107987235071,1e-05,1.0,1.0, 1.0
23,0.0228,0.132,3.45,0.132,3.45,0.036490725810189424,0.0,0.9993339916813825,-0.036490725810189424,0.0,-0.9993339916813825,1e-05,1.0,1.0, 1.0
24,0.0228,0.132,3.45,0.132,3.45,0.1093774985382334,0.0,0.9940002831053514,-0.1093774985382334,0.0,-0.9940002831053514,1e-05,1.0,1.0, 1.0
25,0.0228,0.132,3.45,0.132,3.45,0.18210348687561245,0.0,0.9832793703051761,-0.18210348687561245,0.0,-0.9832793703051761,1e-05,1.0,1.0, 1.0
26,0.0228,0.132,3.45,0.132,3.45,0.254315826452587,0.0,0.9671212232268184,-0.254315826452587,0.0,-0.9671212232268184,1e-05,1.0,1.0, 1.0
27,0.0228,0.132,3.45,0.132,3.45,0.3253228494951716,0.0,0.9456030052809382,-0.3253228494951716,0.0,-0.9456030052809382,1e-05,1.0,1.0, 1.0
28,0.0228,0.132,3.45,0.132,3.45,0.394303677720716,0.0,0.9189802009488114,-0.3943036777207159,0.0,-0.9189802009488114,1e-05,1.0,1.0, 1.0
29,0.0228,0.132,3.45,0.132,3.45,0.4604308160625445,0.0,0.8876955917542789,-0.4604308160625444,0.0,-0.8876955917542789,1e-05,1.0,1.0, 1.0
30,0.0228,0.132,3.45,0.132,3.45,0.5229510772067649,0.0,0.8523626991183296,-0.5229510772067649,0.0,-0.8523626991183296,1e-05,1.0,1.0, 1.0
31,0.0228,0.132,3.45,0.132,3.45,0.5812380667712927,0.0,0.8137335618837226,-0.5812380667712927,0.0,-0.8137335618837226,1e-05,1.0,1.0, 1.0
32,0.0228,0.132,3.45,0.132,3.45,0.6348949229165801,0.0,0.772598496539276,-0.6348949229165801,0.0,-0.7725984965392761,1e-05,1.0,1.0, 1.0
33,0.0228,0.132,3.45,0.132,3.45,0.6840021163354445,0.0,0.7294800236117731,-0.6840021163354444,0.0,-0.7294800236117732,1e-05,1.0,1.0, 1.0
34,0.0228,0.132,3.45,0.132,3.45,0.03601102174064172,0.0,0.9993513928109548,-0.03601102174064172,0.0,-0.9993513928109548,1e-05,1.0,1.0, 1.0
35,0.0228,0.132,3.45,0.132,3.45,0.10802582711763721,0.0,0.994148087900163,-0.10802582711763721,0.0,-0.994148087900163,1e-05,1.0,1.0, 1.0
36,0.0228,0.132,3.45,0.132,3.45,0.1799664701613603,0.0,0.9836727451839153,-0.1799664701613603,0.0,-0.9836727451839153,1e-05,1.0,1.0, 1.0
37,0.0228,0.132,3.45,0.132,3.45,0.2514915252079907,0.0,0.967859500520896,-0.2514915252079907,0.0,-0.967859500520896,1e-05,1.0,1.0, 1.0
38,0.0228,0.132,3.45,0.132,3.45,0.3219614253027932,0.0,0.9467527874883676,-0.3219614253027932,0.0,-0.9467527874883676,1e-05,1.0,1.0, 1.0
39,0.0228,0.132,3.45,0.132,3.45,0.3906038934001773,0.0,0.9205588511663026,-0.3906038934001773,0.0,-0.9205588511663026,1e-05,1.0,1.0, 1.0
40,0.0228,0.132,3.45,0.132,3.45,0.456648267053323,0.0,0.8896473234924034,-0.456648267053323,0.0,-0.8896473234924034,1e-05,1.0,1.0, 1.0
41,0.0228,0.132,3.45,0.132,3.45,0.5193854492538376,0.0,0.8545400839652808,-0.5193854492538376,0.0,-0.8545400839652808,1e-05,1.0,1.0, 1.0
42,0.0228,0.132,3.45,0.132,3.45,0.5782237551686386,0.0,0.815878231698014,-0.5782237551686384,0.0,-0.8158782316980141,1e-05,1.0,1.0, 1.0
43,0.0228,0.132,3.45,0.132,3.45,0.6328204213973274,0.0,0.7742985950281126,-0.6328204213973272,0.0,-0.7742985950281126,1e-05,1.0,1.0, 1.0
44,0.0228,0.132,3.45,0.132,3.45,0.6832630654753417,0.0,0.7301722970349117,-0.6832630654753414,0.0,-0.7301722970349116,1e-05,1.0,1.0, 1.0
45,0.0228,0.132,3.45,0.132,3.45,0.03569647217298373,0.0,0.9993626778474386,-0.03569647217298373,0.0,-0.9993626778474386,1e-05,1.0,1.0, 1.0
46,0.0228,0.132,3.45,0.132,3.45,0.10715038126569068,0.0,0.9942428253674336,-0.10715038126569068,0.0,-0.9942428253674336,1e-05,1.0,1.0, 1.0
47,0.0228,0.132,3.45,0.132,3.45,0.17857114386001033,0.0,0.9839270026686571,-0.17857114386001033,0.0,-0.9839270026686571,1e-05,1.0,1.0, 1.0
48,0.0228,0.132,3.45,0.132,3.45,0.24961610051319624,0.0,0.9683448778015948,-0.24961610051319622,0.0,-0.9683448778015951,1e-05,1.0,1.0, 1.0
49,0.0228,0.132,3.45,0.132,3.45,0.31968792809057606,0.0,0.9475228908227783,-0.31968792809057595,0.0,-0.9475228908227783,1e-05,1.0,1.0, 1.0
50,0.0228,0.132,3.45,0.132,3.45,0.38806959283231474,0.0,0.9216300728160738,-0.38806959283231474,0.0,-0.9216300728160738,1e-05,1.0,1.0, 1.0
51,0.0228,0.132,3.45,0.132,3.45,0.45404594651849794,0.0,0.8909782704702295,-0.45404594651849794,0.0,-0.8909782704702295,1e-05,1.0,1.0, 1.0
52,0.0228,0.132,3.45,0.132,3.45,0.5169438224027773,0.0,0.8560193248283625,-0.5169438224027773,0.0,-0.8560193248283625,1e-05,1.0,1.0, 1.0
53,0.0228,0.132,3.45,0.132,3.45,0.5761985614076054,0.0,0.8173097441189637,-0.5761985614076053,0.0,-0.8173097441189638,1e-05,1.0,1.0, 1.0
54,0.0228,0.132,3.45,0.132,3.45,0.6314825136963739,0.0,0.7753901178733895,-0.6314825136963739,0.0,-0.7753901178733895,1e-05,1.0,1.0, 1.0
55,0.0228,0.132,3.45,0.132,3.45,0.682804333634525,0.0,0.7306012879607539,-0.682804333634525,0.0,-0.7306012879607539,1e-05,1.0,1.0, 1.0
56,0.0228,0.132,3.45,0.132,3.45,0.03548420945041439,0.0,0.9993702371392091,-0.03548420945041439,0.0,-0.9993702371392091,1e-05,1.0,1.0, 1.0
57,0.0228,0.132,3.45,0.132,3.45,0.10656303240370112,0.0,0.9943059489538056,-0.10656303240370112,0.0,-0.9943059489538056,1e-05,1.0,1.0, 1.0
58,0.0228,0.132,3.45,0.132,3.45,0.17761630569135758,0.0,0.9840998160514787,-0.17761630569135758,0.0,-0.9840998160514787,1e-05,1.0,1.0, 1.0
59,0.0228,0.132,3.45,0.132,3.45,0.2482955873569107,0.0,0.968684314572651,-0.2482955873569107,0.0,-0.968684314572651,1e-05,1.0,1.0, 1.0
60,0.0228,0.132,3.45,0.132,3.45,0.3180374264296182,0.0,0.9480781589035924,-0.3180374264296181,0.0,-0.9480781589035924,1e-05,1.0,1.0, 1.0
61,0.0228,0.132,3.45,0.132,3.45,0.38618168887758336,0.0,0.9224227356129387,-0.38618168887758336,0.0,-0.9224227356129387,1e-05,1.0,1.0, 1.0
62,0.0228,0.132,3.45,0.132,3.45,0.45206485599549945,0.0,0.8919850704881603,-0.45206485599549945,0.0,-0.8919850704881603,1e-05,1.0,1.0, 1.0
63,0.0228,0.132,3.45,0.132,3.45,0.5150611170035229,0.0,0.8571534551940414,-0.5150611170035228,0.0,-0.8571534551940414,1e-05,1.0,1.0, 1.0
64,0.0228,0.132,3.45,0.132,3.45,0.5746405323938724,0.0,0.8184059252779681,-0.5746405323938724,0.0,-0.8184059252779681,1e-05,1.0,1.0, 1.0
65,0.0228,0.132,3.45,0.132,3.45,0.6304607187170426,0.0,0.7762211554414052,-0.6304607187170425,0.0,-0.7762211554414054,1e-05,1.0,1.0, 1.0
66,0.0228,0.132,3.45,0.132,3.45,0.6824564788411197,0.0,0.7309262305375148,-0.6824564788411197,0.0,-0.7309262305375148,1e-05,1.0,1.0, 1.0
67,0.0228,0.132,3.45,0.132,3.45,0.03535699895699097,0.0,0.9993747458409961,-0.03535699895699097,0.0,-0.9993747458409961,1e-05,1.0,1.0, 1.0
68,0.0228,0.132,3.45,0.132,3.45,0.10621086387946956,0.0,0.9943436289301485,-0.10621086387946956,0.0,-0.9943436289301485,1e-05,1.0,1.0, 1.0
69,0.0228,0.132,3.45,0.132,3.45,0.1770153112798571,0.0,0.9842080976970751,-0.177015311279857,0.0,-0.9842080976970751,1e-05,1.0,1.0, 1.0
70,0.0228,0.132,3.45,0.132,3.45,0.24740683611062494,0.0,0.9689116871241313,-0.24740683611062508,0.0,-0.9689116871241313,1e-05,1.0,1.0, 1.0
71,0.0228,0.132,3.45,0.132,3.45,0.3168612808342898,0.0,0.948471891364237,-0.31686128083428977,0.0,-0.9484718913642373,1e-05,1.0,1.0, 1.0
72,0.0228,0.132,3.45,0.132,3.45,0.38477585423151545,0.0,0.9230100443659363,-0.38477585423151545,0.0,-0.9230100443659363,1e-05,1.0,1.0, 1.0
73,0.0228,0.132,3.45,0.132,3.45,0.4505416247989781,0.0,0.8927554224553872,-0.450541624798978,0.0,-0.8927554224553872,1e-05,1.0,1.0, 1.0
74,0.0228,0.132,3.45,0.132,3.45,0.5135772157393961,0.0,0.8580433808808096,-0.5135772157393961,0.0,-0.8580433808808096,1e-05,1.0,1.0, 1.0
75,0.0228,0.132,3.45,0.132,3.45,0.5733894404300776,0.0,0.8192829484392328,-0.5733894404300776,0.0,-0.8192829484392328,1e-05,1.0,1.0, 1.0
76,0.0228,0.132,3.45,0.132,3.45,0.6296283565431842,0.0,0.7768964748515268,-0.6296283565431842,0.0,-0.7768964748515268,1e-05,1.0,1.0, 1.0
77,0.0228,0.132,3.45,0.132,3.45,0.6821742424583258,0.0,0.7311896490831975,-0.6821742424583257,0.0,-0.7311896490831976,1e-05,1.0,1.0, 1.0
78,0.0228,0.132,3.45,0.132,3.45,0.03530618696372655,0.0,0.9993765422312465,-0.03530618696372655,0.0,-0.9993765422312465,1e-05,1.0,1.0, 1.0
79,0.0228,0.132,3.45,0.132,3.45,0.10606506583111333,0.0,0.9943591915451083,-0.10606506583111333,0.0,-0.9943591915451083,1e-05,1.0,1.0, 1.0
80,0.0228,0.132,3.45,0.132,3.45,0.1767194666457708,0.0,0.9842612611031861,-0.1767194666457708,0.0,-0.9842612611031861,1e-05,1.0,1.0, 1.0
81,0.0228,0.132,3.45,0.132,3.45,0.2468895479290933,0.0,0.9690436270485286,-0.2468895479290933,0.0,-0.9690436270485286,1e-05,1.0,1.0, 1.0
82,0.0228,0.132,3.45,0.132,3.45,0.3160921398155805,0.0,0.9487284960128517,-0.3160921398155804,0.0,-0.9487284960128517,1e-05,1.0,1.0, 1.0
83,0.0228,0.132,3.45,0.132,3.45,0.38377874448205523,0.0,0.9234250783272985,-0.38377874448205535,0.0,-0.9234250783272985,1e-05,1.0,1.0, 1.0
84,0.0228,0.132,3.45,0.132,3.45,0.4493968767363417,0.0,0.8933322154605313,-0.4493968767363416,0.0,-0.8933322154605313,1e-05,1.0,1.0, 1.0
85,0.0228,0.132,3.45,0.132,3.45,0.5124179745025448,0.0,0.8587361756713812,-0.5124179745025448,0.0,-0.8587361756713812,1e-05,1.0,1.0, 1.0
86,0.0228,0.132,3.45,0.132,3.45,0.5723855632567072,0.0,0.819984613864981,-0.5723855632567072,0.0,-0.819984613864981,1e-05,1.0,1.0, 1.0
87,0.0228,0.132,3.45,0.132,3.45,0.6289490193557381,0.0,0.777446545462423,-0.6289490193557381,0.0,-0.7774465454624229,1e-05,1.0,1.0, 1.0
88,0.0228,0.132,3.45,0.132,3.45,0.6819418748460094,0.0,0.7314063708578902,-0.6819418748460094,0.0,-0.7314063708578902,1e-05,1.0,1.0, 1.0
89,0.0228,0.132,3.45,0.132,3.45,0.03532741206128997,0.0,0.9993757921608126,-0.03532741206128997,0.0,-0.9993757921608126,1e-05,1.0,1.0, 1.0
90,0.0228,0.132,3.45,0.132,3.45,0.10610775909594342,0.0,0.9943546366662336,-0.10610775909594342,0.0,-0.9943546366662336,1e-05,1.0,1.0, 1.0
91,0.0228,0.132,3.45,0.132,3.45,0.17669515913832606,0.0,0.9842656250916628,-0.17669515913832615,0.0,-0.9842656250916628,1e-05,1.0,1.0, 1.0
92,0.0228,0.132,3.45,0.132,3.45,0.24670075144790365,0.0,0.9690917083718339,-0.24670075144790365,0.0,-0.9690917083718339,1e-05,1.0,1.0, 1.0
93,0.0228,0.132,3.45,0.132,3.45,0.3156780545690115,0.0,0.9488663582736635,-0.3156780545690114,0.0,-0.9488663582736635,1e-05,1.0,1.0, 1.0
94,0.0228,0.132,3.45,0.132,3.45,0.38313811676955745,0.0,0.9236910649553112,-0.38313811676955745,0.0,-0.9236910649553112,1e-05,1.0,1.0, 1.0
95,0.0228,0.132,3.45,0.132,3.45,0.44858224090500015,0.0,0.893741558362734,-0.44858224090500015,0.0,-0.893741558362734,1e-05,1.0,1.0, 1.0
96,0.0228,0.132,3.45,0.132,3.45,0.511542491475822,0.0,0.8592579818743079,-0.5115424914758221,0.0,-0.8592579818743079,1e-05,1.0,1.0, 1.0
97,0.0228,0.132,3.45,0.132,3.45,0.5715993450690836,0.0,0.8205328687606578,-0.5715993450690836,0.0,-0.8205328687606578,1e-05,1.0,1.0, 1.0
98,0.0228,0.132,3.45,0.132,3.45,0.6284013769674877,0.0,0.7778892655290761,-0.6284013769674877,0.0,-0.7778892655290761,1e-05,1.0,1.0, 1.0
99,0.0228,0.132,3.45,0.132,3.45,0.6817512919794901,0.0,0.7315840183357589,-0.6817512919794901,0.0,-0.7315840183357589,1e-05,1.0,1.0, 1.0
100,0.0228,0.132,3.45,0.132,3.45,0.03542002848792301,0.0,0.999372513921568,-0.03542002848792301,0.0,-0.999372513921568,1e-05,1.0,1.0, 1.0
101,0.0228,0.132,3.45,0.132,3.45,0.106322604873657,0.0,0.9943316869600809,-0.106322604873657,0.0,-0.9943316869600809,1e-05,1.0,1.0, 1.0
102,0.0228,0.132,3.45,0.132,3.45,0.17691099334423555,0.0,0.9842268541520068,-0.17691099334423563,0.0,-0.9842268541520068,1e-05,1.0,1.0, 1.0
103,0.0228,0.132,3.45,0.132,3.45,0.24679885769766405,0.0,0.9690667282695904,-0.24679885769766405,0.0,-0.9690667282695904,1e-05,1.0,1.0, 1.0
104,0.0228,0.132,3.45,0.132,3.45,0.31557084133359337,0.0,0.9489020202845013,-0.3155708413335934,0.0,-0.9489020202845011,1e-05,1.0,1.0, 1.0
105,0.0228,0.132,3.45,0.132,3.45,0.38280214814969954,0.0,0.9238303498868045,-0.3828021481496994,0.0,-0.9238303498868045,1e-05,1.0,1.0, 1.0
106,0.0228,0.132,3.45,0.132,3.45,0.4480547027919367,0.0,0.8940061427675031,-0.4480547027919367,0.0,-0.8940061427675031,1e-05,1.0,1.0, 1.0
107,0.0228,0.132,3.45,0.132,3.45,0.5109143516582269,0.0,0.8596316218413873,-0.5109143516582269,0.0,-0.8596316218413873,1e-05,1.0,1.0, 1.0
108,0.0228,0.132,3.45,0.132,3.45,0.5709991572194628,0.0,0.8209506455656534,-0.5709991572194628,0.0,-0.8209506455656534,1e-05,1.0,1.0, 1.0
109,0.0228,0.132,3.45,0.132,3.45,0.6279692913802699,0.0,0.7782381184980351,-0.6279692913802699,0.0,-0.7782381184980351,1e-05,1.0,1.0, 1.0
110,0.0228,0.132,3.45,0.132,3.45,0.681598287176065,0.0,0.731726571144341,-0.681598287176065,0.0,-0.731726571144341,1e-05,1.0,1.0, 1.0
111,0.0228,0.132,3.45,0.132,3.45,0.03558754301613922,0.0,0.9993665627696748,-0.03558754301613922,0.0,-0.9993665627696748,1e-05,1.0,1.0, 1.0
112,0.0228,0.132,3.45,0.132,3.45,0.10668323684896298,0.0,0.9942930588993509,-0.10668323684896298,0.0,-0.9942930588993509,1e-05,1.0,1.0, 1.0
113,0.0228,0.132,3.45,0.132,3.45,0.17731328524061765,0.0,0.9841544588514445,-0.1773132852406177,0.0,-0.9841544588514443,1e-05,1.0,1.0, 1.0
114,0.0228,0.132,3.45,0.132,3.45,0.24710847982371723,0.0,0.9689878220076925,-0.2471084798237171,0.0,-0.9689878220076925,1e-05,1.0,1.0, 1.0
115,0.0228,0.132,3.45,0.132,3.45,0.3156915885952936,0.0,0.9488618555354514,-0.3156915885952938,0.0,-0.9488618555354514,1e-05,1.0,1.0, 1.0
116,0.0228,0.132,3.45,0.132,3.45,0.3826926952663582,0.0,0.9238756956375519,-0.3826926952663582,0.0,-0.9238756956375519,1e-05,1.0,1.0, 1.0
117,0.0228,0.132,3.45,0.132,3.45,0.44773636116929755,0.0,0.8941656171464413,-0.44773636116929755,0.0,-0.8941656171464413,1e-05,1.0,1.0, 1.0
118,0.0228,0.132,3.45,0.132,3.45,0.5104644180555009,0.0,0.8598988765542486,-0.5104644180555009,0.0,-0.8598988765542486,1e-05,1.0,1.0, 1.0
119,0.0228,0.132,3.45,0.132,3.45,0.5705342967711,0.0,0.8212737766469269,-0.5705342967711,0.0,-0.8212737766469269,1e-05,1.0,1.0, 1.0
120,0.0228,0.132,3.45,0.132,3.45,0.6276288636276066,0.0,0.7785126906746731,-0.6276288636276066,0.0,-0.7785126906746731,1e-05,1.0,1.0, 1.0
121,0.0228,0.132,3.45,0.132,3.45,0.6814759101772524,0.0,0.731840545370428,-0.6814759101772524,0.0,-0.731840545370428,1e-05,1.0,1.0, 1.0
122,0.0228,0.132,3.45,0.132,3.45,0.03958851715792919,0.0,0.9992160673794414,-0.03958851715792919,0.0,-0.9992160673794414,1e-05,1.0,1.0, 1.0
123,0.0228,0.132,3.45,0.132,3.45,0.1185092226785353,0.0,0.9929529516246627,-0.1185092226785353,0.0,-0.9929529516246627,1e-05,1.0,1.0, 1.0
124,0.0228,0.132,3.45,0.132,3.45,0.19648830272791332,0.0,0.9805061687164971,-0.19648830272791343,0.0,-0.9805061687164971,1e-05,1.0,1.0, 1.0
125,0.0228,0.132,3.45,0.132,3.45,0.27292984820114224,0.0,0.962033938050473,-0.27292984820114224,0.0,-0.962033938050473,1e-05,1.0,1.0, 1.0
126,0.0228,0.132,3.45,0.132,3.45,0.34705490476586287,0.0,0.9378448128970793,-0.347054904765863,0.0,-0.9378448128970793,1e-05,1.0,1.0, 1.0
127,0.0228,0.132,3.45,0.132,3.45,0.4179843508351928,0.0,0.9084542269464557,-0.4179843508351928,0.0,-0.9084542269464557,1e-05,1.0,1.0, 1.0
128,0.0228,0.132,3.45,0.132,3.45,0.48485712000034636,0.0,0.8745933759096107,-0.4848571200003462,0.0,-0.8745933759096107,1e-05,1.0,1.0, 1.0
129,0.0228,0.132,3.45,0.132,3.45,0.5468159058171597,0.0,0.8372528681021995,-0.5468159058171597,0.0,-0.8372528681021995,1e-05,1.0,1.0, 1.0
130,0.0228,0.132,3.45,0.132,3.45,0.6028370449418468,0.0,0.7978643351132959,-0.6028370449418468,0.0,-0.7978643351132959,1e-05,1.0,1.0, 1.0
131,0.0228,0.132,3.45,0.132,3.45,0.6514515078903161,0.0,0.7586902746624826,-0.6514515078903163,0.0,-0.7586902746624825,1e-05,1.0,1.0, 1.0
132,0.0228,0.132,3.45,0.132,3.45,0.6904851512253978,0.0,0.7233465669630565,-0.6904851512253979,0.0,-0.7233465669630564,1e-05,1.0,1.0, 1.0
133,0.0228,0.132,3.45,0.132,3.45,0.03763658952183622,0.0,0.9992914925731956,-0.03763658952183622,0.0,-0.9992914925731956,1e-05,1.0,1.0, 1.0
134,0.0228,0.132,3.45,0.132,3.45,0.11282540980712125,0.0,0.9936148282417363,-0.11282540980712125,0.0,-0.9936148282417363,1e-05,1.0,1.0, 1.0
135,0.0228,0.132,3.45,0.132,3.45,0.18750358561852726,0.0,0.9822639183947436,-0.18750358561852726,0.0,-0.9822639183947436,1e-05,1.0,1.0, 1.0
136,0.0228,0.132,3.45,0.132,3.45,0.26121790071349255,0.0,0.9652798601166586,-0.26121790071349255,0.0,-0.9652798601166586,1e-05,1.0,1.0, 1.0
137,0.0228,0.132,3.45,0.132,3.45,0.3332897108716848,0.0,0.9428244633159815,-0.3332897108716848,0.0,-0.9428244633159815,1e-05,1.0,1.0, 1.0
138,0.0228,0.132,3.45,0.132,3.45,0.40290131453068134,0.0,0.9152434270452035,-0.4029013145306813,0.0,-0.9152434270452037,1e-05,1.0,1.0, 1.0
139,0.0228,0.132,3.45,0.132,3.45,0.469209583509206,0.0,0.8830868398652069,-0.46920958350920605,0.0,-0.8830868398652069,1e-05,1.0,1.0, 1.0
140,0.0228,0.132,3.45,0.132,3.45,0.5313928491038072,0.0,0.8471255160372273,-0.5313928491038072,0.0,-0.8471255160372273,1e-05,1.0,1.0, 1.0
141,0.0228,0.132,3.45,0.132,3.45,0.5886780257989895,0.0,0.8083676032235607,-0.5886780257989895,0.0,-0.8083676032235607,1e-05,1.0,1.0, 1.0
142,0.0228,0.132,3.45,0.132,3.45,0.6403186431613245,0.0,0.7681093901392173,-0.6403186431613244,0.0,-0.7681093901392174,1e-05,1.0,1.0, 1.0
143,0.0228,0.132,3.45,0.132,3.45,0.6860262541423797,0.0,0.7275767853823919,-0.6860262541423797,0.0,-0.7275767853823919,1e-05,1.0,1.0, 1.0
144,0.0228,0.132,3.45,0.132,3.45,0.03662096524243098,0.0,0.9993292274844726,-0.03662096524243098,0.0,-0.9993292274844726,1e-05,1.0,1.0, 1.0
145,0.0228,0.132,3.45,0.132,3.45,0.1098822132757763,0.0,0.9939446157636836,-0.1098822132757763,0.0,-0.9939446157636836,1e-05,1.0,1.0, 1.0
146,0.0228,0.132,3.45,0.132,3.45,0.18284262914545013,0.0,0.983142193666399,-0.18284262914545013,0.0,-0.983142193666399,1e-05,1.0,1.0, 1.0
147,0.0228,0.132,3.45,0.132,3.45,0.25510946766874637,0.0,0.9669121777626802,-0.25510946766874637,0.0,-0.9669121777626802,1e-05,1.0,1.0, 1.0
148,0.0228,0.132,3.45,0.132,3.45,0.32606657498709823,0.0,0.9453468086772087,-0.32606657498709823,0.0,-0.9453468086772087,1e-05,1.0,1.0, 1.0
149,0.0228,0.132,3.45,0.132,3.45,0.39495549106711025,0.0,0.9187002558375271,-0.3949554910671102,0.0,-0.9187002558375271,1e-05,1.0,1.0, 1.0
150,0.0228,0.132,3.45,0.132,3.45,0.46098433063945954,0.0,0.8874082752064516,-0.46098433063945954,0.0,-0.8874082752064516,1e-05,1.0,1.0, 1.0
151,0.0228,0.132,3.45,0.132,3.45,0.523398983331038,0.0,0.8520877327177265,-0.5233989833310381,0.0,-0.8520877327177265,1e-05,1.0,1.0, 1.0
152,0.0228,0.132,3.45,0.132,3.45,0.581572343171819,0.0,0.8134946893850258,-0.581572343171819,0.0,-0.8134946893850258,1e-05,1.0,1.0, 1.0
153,0.0228,0.132,3.45,0.132,3.45,0.63510429262263,0.0,0.7724263961649088,-0.63510429262263,0.0,-0.7724263961649088,1e-05,1.0,1.0, 1.0
154,0.0228,0.132,3.45,0.132,3.45,0.684074648647841,0.0,0.7294120063978471,-0.684074648647841,0.0,-0.7294120063978471,1e-05,1.0,1.0, 1.0
155,0.0228,0.132,3.45,0.132,3.45,0.0360928165742996,0.0,0.9993484420319741,-0.0360928165742996,0.0,-0.9993484420319741,1e-05,1.0,1.0, 1.0
156,0.0228,0.132,3.45,0.132,3.45,0.10836794579803816,0.0,0.994110853136366,-0.10836794579803816,0.0,-0.994110853136366,1e-05,1.0,1.0, 1.0
157,0.0228,0.132,3.45,0.132,3.45,0.18044050193427863,0.0,0.9835859013129994,-0.18044050193427863,0.0,-0.9835859013129994,1e-05,1.0,1.0, 1.0
158,0.0228,0.132,3.45,0.132,3.45,0.25193479425436516,0.0,0.9677442117853305,-0.2519347942543651,0.0,-0.9677442117853305,1e-05,1.0,1.0, 1.0
159,0.0228,0.132,3.45,0.132,3.45,0.3222779097469775,0.0,0.9466451018671777,-0.32227790974697745,0.0,-0.9466451018671777,1e-05,1.0,1.0, 1.0
160,0.0228,0.132,3.45,0.132,3.45,0.39076264185950405,0.0,0.9204914761837728,-0.39076264185950405,0.0,-0.9204914761837728,1e-05,1.0,1.0, 1.0
161,0.0228,0.132,3.45,0.132,3.45,0.45665534846469036,0.0,0.8896436886296627,-0.4566553484646904,0.0,-0.8896436886296627,1e-05,1.0,1.0, 1.0
162,0.0228,0.132,3.45,0.132,3.45,0.5192692046663501,0.0,0.8546107260531993,-0.5192692046663501,0.0,-0.8546107260531991,1e-05,1.0,1.0, 1.0
163,0.0228,0.132,3.45,0.132,3.45,0.5780323368328684,0.0,0.8160138586908516,-0.5780323368328684,0.0,-0.8160138586908516,1e-05,1.0,1.0, 1.0
164,0.0228,0.132,3.45,0.132,3.45,0.6326394886628822,0.0,0.7744464328695478,-0.6326394886628822,0.0,-0.7744464328695478,1e-05,1.0,1.0, 1.0
165,0.0228,0.132,3.45,0.132,3.45,0.6831898960448168,0.0,0.7302407588886507,-0.6831898960448167,0.0,-0.7302407588886508,1e-05,1.0,1.0, 1.0
166,0.0228,0.132,3.45,0.132,3.45,0.03579001791677526,0.0,0.9993593320810673,-0.03579001791677526,0.0,-0.9993593320810673,1e-05,1.0,1.0, 1.0
167,0.0228,0.132,3.45,0.132,3.45,0.1075116988936972,0.0,0.994203819445988,-0.1075116988936972,0.0,-0.994203819445988,1e-05,1.0,1.0, 1.0
168,0.0228,0.132,3.45,0.132,3.45,0.17907304495562987,0.0,0.9838357813021028,-0.17907304495562987,0.0,-0.9838357813021028,1e-05,1.0,1.0, 1.0
169,0.0228,0.132,3.45,0.132,3.45,0.2500958634630662,0.0,0.9682210796500267,-0.2500958634630662,0.0,-0.9682210796500267,1e-05,1.0,1.0, 1.0
170,0.0228,0.132,3.45,0.132,3.45,0.3200423508728961,0.0,0.9474032370895458,-0.32004235087289595,0.0,-0.9474032370895458,1e-05,1.0,1.0, 1.0
171,0.0228,0.132,3.45,0.132,3.45,0.388256954814148,0.0,0.9215511581233266,-0.388256954814148,0.0,-0.9215511581233266,1e-05,1.0,1.0, 1.0
172,0.0228,0.132,3.45,0.132,3.45,0.45405759231450155,0.0,0.8909723356320094,-0.45405759231450155,0.0,-0.8909723356320094,1e-05,1.0,1.0, 1.0
173,0.0228,0.132,3.45,0.132,3.45,0.5168051220789519,0.0,0.8561030696084202,-0.5168051220789519,0.0,-0.8561030696084202,1e-05,1.0,1.0, 1.0
174,0.0228,0.132,3.45,0.132,3.45,0.5759682119458049,0.0,0.8174720905498563,-0.5759682119458048,0.0,-0.8174720905498564,1e-05,1.0,1.0, 1.0
175,0.0228,0.132,3.45,0.132,3.45,0.631261062310268,0.0,0.7755704166682172,-0.6312610623102679,0.0,-0.7755704166682172,1e-05,1.0,1.0, 1.0
176,0.0228,0.132,3.45,0.132,3.45,0.6827144198126733,0.0,0.7306853091309862,-0.6827144198126734,0.0,-0.7306853091309861,1e-05,1.0,1.0, 1.0
177,0.0228,0.132,3.45,0.132,3.45,0.03559671966481337,0.0,0.9993662359461144,-0.03559671966481337,0.0,-0.9993662359461144,1e-05,1.0,1.0, 1.0
178,0.0228,0.132,3.45,0.132,3.45,0.10697379539417927,0.0,0.9942618403111749,-0.10697379539417927,0.0,-0.9942618403111749,1e-05,1.0,1.0, 1.0
179,0.0228,0.132,3.45,0.132,3.45,0.17820128396008325,0.0,0.9839940560770566,-0.17820128396008325,0.0,-0.9839940560770566,1e-05,1.0,1.0, 1.0
180,0.0228,0.132,3.45,0.132,3.45,0.24889062663278938,0.0,0.9685315978192645,-0.24889062663278938,0.0,-0.9685315978192645,1e-05,1.0,1.0, 1.0
181,0.0228,0.132,3.45,0.132,3.45,0.31853471309446224,0.0,0.9479111965547345,-0.31853471309446224,0.0,-0.9479111965547345,1e-05,1.0,1.0, 1.0
182,0.0228,0.132,3.45,0.132,3.45,0.38652592287550197,0.0,0.9222785430363442,-0.38652592287550197,0.0,-0.9222785430363442,1e-05,1.0,1.0, 1.0
183,0.0228,0.132,3.45,0.132,3.45,0.45223582125220907,0.0,0.8918984033937609,-0.452235821252209,0.0,-0.8918984033937609,1e-05,1.0,1.0, 1.0
184,0.0228,0.132,3.45,0.132,3.45,0.5150646250377341,0.0,0.8571513472163119,-0.5150646250377341,0.0,-0.8571513472163119,1e-05,1.0,1.0, 1.0
185,0.0228,0.132,3.45,0.132,3.45,0.5745241006323988,0.0,0.8184876650216136,-0.5745241006323988,0.0,-0.8184876650216136,1e-05,1.0,1.0, 1.0
186,0.0228,0.132,3.45,0.132,3.45,0.6303150507208992,0.0,0.7763394469139838,-0.6303150507208991,0.0,-0.7763394469139838,1e-05,1.0,1.0, 1.0
187,0.0228,0.132,3.45,0.132,3.45,0.6823943178649368,0.0,0.7309842644993445,-0.6823943178649368,0.0,-0.7309842644993445,1e-05,1.0,1.0, 1.0
188,0.0228,0.132,3.45,0.132,3.45,0.035468946437167824,0.0,0.9993707789597599,-0.035468946437167824,0.0,-0.9993707789597599,1e-05,1.0,1.0, 1.0
189,0.0228,0.132,3.45,0.132,3.45,0.10662639624453198,0.0,0.9942991560008005,-0.10662639624453198,0.0,-0.9942991560008005,1e-05,1.0,1.0, 1.0
190,0.0228,0.132,3.45,0.132,3.45,0.17762296359471863,0.0,0.9840986143694286,-0.17762296359471863,0.0,-0.9840986143694286,1e-05,1.0,1.0, 1.0
191,0.0228,0.132,3.45,0.132,3.45,0.2480526034365759,0.0,0.9687465643440172,-0.2480526034365759,0.0,-0.9687465643440172,1e-05,1.0,1.0, 1.0
192,0.0228,0.132,3.45,0.132,3.45,0.3174397042563669,0.0,0.9482784581343342,-0.3174397042563669,0.0,-0.9482784581343342,1e-05,1.0,1.0, 1.0
193,0.0228,0.132,3.45,0.132,3.45,0.3852244154543238,0.0,0.9228229243673319,-0.3852244154543238,0.0,-0.9228229243673319,1e-05,1.0,1.0, 1.0
194,0.0228,0.132,3.45,0.132,3.45,0.4508285725240481,0.0,0.8926105523664444,-0.4508285725240481,0.0,-0.8926105523664445,1e-05,1.0,1.0, 1.0
195,0.0228,0.132,3.45,0.132,3.45,0.5137006373715702,0.0,0.8579694954740771,-0.5137006373715702,0.0,-0.8579694954740771,1e-05,1.0,1.0, 1.0
196,0.0228,0.132,3.45,0.132,3.45,0.5733835689125666,0.0,0.8192870576916788,-0.5733835689125666,0.0,-0.8192870576916785,1e-05,1.0,1.0, 1.0
197,0.0228,0.132,3.45,0.132,3.45,0.629560113777319,0.0,0.7769517765863523,-0.629560113777319,0.0,-0.7769517765863523,1e-05,1.0,1.0, 1.0
198,0.0228,0.132,3.45,0.132,3.45,0.6821380399692146,0.0,0.7312234230568371,-0.6821380399692147,0.0,-0.7312234230568371,1e-05,1.0,1.0, 1.0
199,0.0228,0.132,3.45,0.132,3.45,0.03539653397991864,0.0,0.9993733463437018,-0.03539653397991864,0.0,-0.9993733463437018,1e-05,1.0,1.0, 1.0
200,0.0228,0.132,3.45,0.132,3.45,0.10643033829700288,0.0,0.994320161260942,-0.10643033829700288,0.0,-0.994320161260942,1e-05,1.0,1.0, 1.0
201,0.0228,0.132,3.45,0.132,3.45,0.17727058850077543,0.0,0.9841621504877073,-0.17727058850077543,0.0,-0.9841621504877073,1e-05,1.0,1.0, 1.0
202,0.0228,0.132,3.45,0.132,3.45,0.24749501579580369,0.0,0.9688891666007184,-0.24749501579580377,0.0,-0.9688891666007184,1e-05,1.0,1.0, 1.0
203,0.0228,0.132,3.45,0.132,3.45,0.3166536059263483,0.0,0.9485412452043617,-0.3166536059263483,0.0,-0.9485412452043617,1e-05,1.0,1.0, 1.0
204,0.0228,0.132,3.45,0.132,3.45,0.3842380445502441,0.0,0.9232340576041401,-0.3842380445502442,0.0,-0.92323405760414,1e-05,1.0,1.0, 1.0
205,0.0228,0.132,3.45,0.132,3.45,0.4497215848783152,0.0,0.8931687948504115,-0.4497215848783151,0.0,-0.8931687948504115,1e-05,1.0,1.0, 1.0
206,0.0228,0.132,3.45,0.132,3.45,0.5126036907997559,0.0,0.8586253293366487,-0.5126036907997559,0.0,-0.8586253293366487,1e-05,1.0,1.0, 1.0
207,0.0228,0.132,3.45,0.132,3.45,0.5724460804971844,0.0,0.8199423668303834,-0.5724460804971844,0.0,-0.8199423668303834,1e-05,1.0,1.0, 1.0
208,0.0228,0.132,3.45,0.132,3.45,0.6289347219428854,0.0,0.7774581117556274,-0.6289347219428854,0.0,-0.7774581117556274,1e-05,1.0,1.0, 1.0
209,0.0228,0.132,3.45,0.132,3.45,0.6819261435360534,0.0,0.7314210379542319,-0.6819261435360534,0.0,-0.7314210379542319,1e-05,1.0,1.0, 1.0
210,0.0228,0.132,3.45,0.132,3.45,0.035384245774637335,0.0,0.9993737815006756,-0.035384245774637335,0.0,-0.9993737815006756,1e-05,1.0,1.0, 1.0
211,0.0228,0.132,3.45,0.132,3.45,0.10638454295495256,0.0,0.9943250620497635,-0.10638454295495256,0.0,-0.9943250620497635,1e-05,1.0,1.0, 1.0
212,0.0228,0.132,3.45,0.132,3.45,0.17712970772515835,0.0,0.984187515995402,-0.17712970772515835,0.0,-0.984187515995402,1e-05,1.0,1.0, 1.0
213,0.0228,0.132,3.45,0.132,3.45,0.2471895743579546,0.0,0.9689671378992856,-0.2471895743579546,0.0,-0.9689671378992856,1e-05,1.0,1.0, 1.0
214,0.0228,0.132,3.45,0.132,3.45,0.31614181178804596,0.0,0.9487119451337016,-0.31614181178804596,0.0,-0.9487119451337016,1e-05,1.0,1.0, 1.0
215,0.0228,0.132,3.45,0.132,3.45,0.3835266714212955,0.0,0.9235298004441987,-0.3835266714212955,0.0,-0.9235298004441987,1e-05,1.0,1.0, 1.0
216,0.0228,0.132,3.45,0.132,3.45,0.4488693483899138,0.0,0.8935973970843997,-0.4488693483899138,0.0,-0.8935973970843997,1e-05,1.0,1.0, 1.0
217,0.0228,0.132,3.45,0.132,3.45,0.5117204250032075,0.0,0.8591520276613078,-0.5117204250032075,0.0,-0.8591520276613078,1e-05,1.0,1.0, 1.0
218,0.0228,0.132,3.45,0.132,3.45,0.5716742935819962,0.0,0.8204806530671674,-0.5716742935819962,0.0,-0.8204806530671674,1e-05,1.0,1.0, 1.0
219,0.0228,0.132,3.45,0.132,3.45,0.6284131147215524,0.0,0.7778797832865675,-0.6284131147215524,0.0,-0.7778797832865675,1e-05,1.0,1.0, 1.0
220,0.0228,0.132,3.45,0.132,3.45,0.6817456208346936,0.0,0.7315893031426295,-0.6817456208346935,0.0,-0.7315893031426295,1e-05,1.0,1.0, 1.0
221,0.0228,0.132,3.45,0.132,3.45,0.03544203122339758,0.0,0.9993717338522036,-0.03544203122339758,0.0,-0.9993717338522036,1e-05,1.0,1.0, 1.0
222,0.0228,0.132,3.45,0.132,3.45,0.10649120394443815,0.0,0.9943136444213486,-0.10649120394443817,0.0,-0.9943136444213486,1e-05,1.0,1.0, 1.0
223,0.0228,0.132,3.45,0.132,3.45,0.17718919181936363,0.0,0.9841768084558795,-0.17718919181936363,0.0,-0.9841768084558795,1e-05,1.0,1.0, 1.0
224,0.0228,0.132,3.45,0.132,3.45,0.24711570480361444,0.0,0.9689859794854685,-0.24711570480361444,0.0,-0.9689859794854685,1e-05,1.0,1.0, 1.0
225,0.0228,0.132,3.45,0.132,3.45,0.31587881037065274,0.0,0.9487995452985952,-0.31587881037065274,0.0,-0.9487995452985952,1e-05,1.0,1.0, 1.0
226,0.0228,0.132,3.45,0.132,3.45,0.38306490032545987,0.0,0.9237214310270415,-0.38306490032545987,0.0,-0.9237214310270415,1e-05,1.0,1.0, 1.0
227,0.0228,0.132,3.45,0.132,3.45,0.44825013561893656,0.0,0.8939081697342323,-0.44825013561893656,0.0,-0.8939081697342323,1e-05,1.0,1.0, 1.0
228,0.0228,0.132,3.45,0.132,3.45,0.5110388629321669,0.0,0.8595576074778222,-0.511038862932167,0.0,-0.8595576074778221,1e-05,1.0,1.0, 1.0
229,0.0228,0.132,3.45,0.132,3.45,0.5710585918200475,0.0,0.8209093035826213,-0.5710585918200475,0.0,-0.8209093035826213,1e-05,1.0,1.0, 1.0
230,0.0228,0.132,3.45,0.132,3.45,0.6279890537989128,0.0,0.7782221715607609,-0.6279890537989128,0.0,-0.7782221715607609,1e-05,1.0,1.0, 1.0
231,0.0228,0.132,3.45,0.132,3.45,0.6815981295896221,0.0,0.7317267179350011,-0.6815981295896221,0.0,-0.731726717935001,1e-05,1.0,1.0, 1.0
232,0.0228,0.132,3.45,0.132,3.45,0.03559025262858249,0.0,0.9993664662764273,-0.03559025262858249,0.0,-0.9993664662764273,1e-05,1.0,1.0, 1.0
233,0.0228,0.132,3.45,0.132,3.45,0.10673943388048823,0.0,0.9942870276006185,-0.10673943388048823,0.0,-0.9942870276006185,1e-05,1.0,1.0, 1.0
234,0.0228,0.132,3.45,0.132,3.45,0.17741097219659765,0.0,0.9841368537679391,-0.17741097219659765,0.0,-0.9841368537679391,1e-05,1.0,1.0, 1.0
235,0.0228,0.132,3.45,0.132,3.45,0.24722089055449273,0.0,0.9689591484027815,-0.24722089055449273,0.0,-0.9689591484027815,1e-05,1.0,1.0, 1.0
236,0.0228,0.132,3.45,0.132,3.45,0.31580274976499345,0.0,0.9488248643669014,-0.31580274976499345,0.0,-0.9488248643669014,1e-05,1.0,1.0, 1.0
237,0.0228,0.132,3.45,0.132,3.45,0.38278734220868604,0.0,0.9238364847984789,-0.3827873422086862,0.0,-0.9238364847984789,1e-05,1.0,1.0, 1.0
238,0.0228,0.132,3.45,0.132,3.45,0.44780868634311793,0.0,0.8941293980379188,-0.44780868634311793,0.0,-0.8941293980379188,1e-05,1.0,1.0, 1.0
239,0.0228,0.132,3.45,0.132,3.45,0.5105097972355754,0.0,0.8598719363524383,-0.5105097972355755,0.0,-0.8598719363524383,1e-05,1.0,1.0, 1.0
240,0.0228,0.132,3.45,0.132,3.45,0.5705578201110255,0.0,0.8212574346148439,-0.5705578201110255,0.0,-0.8212574346148439,1e-05,1.0,1.0, 1.0
241,0.0228,0.132,3.45,0.132,3.45,0.6276385423581967,0.0,0.7785048876831012,-0.6276385423581968,0.0,-0.7785048876831012,1e-05,1.0,1.0, 1.0
242,0.0228,0.132,3.45,0.132,3.45,0.6814750169167652,0.0,0.7318413771564809,-0.6814750169167652,0.0,-0.7318413771564809,1e-05,1.0,1.0, 1.0
243,0.0228,0.132,3.45,0.132,3.45,0.0387001682913864,0.0,0.9992508678876484,-0.0387001682913864,0.0,-0.9992508678876484,1e-05,1.0,1.0, 1.0
244,0.0228,0.132,3.45,0.132,3.45,0.11576680126946096,0.0,0.9932764206019576,-0.11576680126946096,0.0,-0.9932764206019576,1e-05,1.0,1.0, 1.0
245,0.0228,0.132,3.45,0.132,3.45,0.19229785170904473,0.0,0.98133660699481,-0.19229785170904473,0.0,-0.98133660699481,1e-05,1.0,1.0, 1.0
246,0.0228,0.132,3.45,0.132,3.45,0.2678099605820578,0.0,0.963471756209302,-0.2678099605820578,0.0,-0.963471756209302,1e-05,1.0,1.0, 1.0
247,0.0228,0.132,3.45,0.132,3.45,0.34143357238522576,0.0,0.9399059078696456,-0.3414335723852259,0.0,-0.9399059078696457,1e-05,1.0,1.0, 1.0
248,0.0228,0.132,3.45,0.132,3.45,0.41220798158812527,0.0,0.9110897759908425,-0.41220798158812527,0.0,-0.9110897759908425,1e-05,1.0,1.0, 1.0
249,0.0228,0.132,3.45,0.132,3.45,0.47923242070907207,0.0,0.877688035090671,-0.47923242070907207,0.0,-0.8776880350906712,1e-05,1.0,1.0, 1.0
250,0.0228,0.132,3.45,0.132,3.45,0.5416943762914366,0.0,0.8405755187335825,-0.5416943762914366,0.0,-0.8405755187335825,1e-05,1.0,1.0, 1.0
251,0.0228,0.132,3.45,0.132,3.45,0.5987221971663961,0.0,0.8009567595196655,-0.5987221971663961,0.0,-0.8009567595196655,1e-05,1.0,1.0, 1.0
252,0.0228,0.132,3.45,0.132,3.45,0.6489136362011335,0.0,0.7608620720946885,-0.6489136362011334,0.0,-0.7608620720946886,1e-05,1.0,1.0, 1.0
253,0.0228,0.132,3.45,0.132,3.45,0.6896729802121537,0.0,0.7241209708089432,-0.6896729802121535,0.0,-0.7241209708089432,1e-05,1.0,1.0, 1.0
254,0.0228,0.132,3.45,0.132,3.45,0.03702574258281291,0.0,0.9993143121091539,-0.03702574258281291,0.0,-0.9993143121091539,1e-05,1.0,1.0, 1.0
255,0.0228,0.132,3.45,0.132,3.45,0.1109363303921978,0.0,0.9938275155172114,-0.1109363303921978,0.0,-0.9938275155172114,1e-05,1.0,1.0, 1.0
256,0.0228,0.132,3.45,0.132,3.45,0.18464991820324825,0.0,0.9828043588159007,-0.18464991820324825,0.0,-0.9828043588159007,1e-05,1.0,1.0, 1.0
257,0.0228,0.132,3.45,0.132,3.45,0.25778534441292605,0.0,0.9662022128964045,-0.25778534441292594,0.0,-0.9662022128964045,1e-05,1.0,1.0, 1.0
258,0.0228,0.132,3.45,0.132,3.45,0.32957773287023134,0.0,0.9441284435902343,-0.32957773287023134,0.0,-0.9441284435902343,1e-05,1.0,1.0, 1.0
259,0.0228,0.132,3.45,0.132,3.45,0.39913654457803177,0.0,0.9168914978242022,-0.39913654457803166,0.0,-0.9168914978242022,1e-05,1.0,1.0, 1.0
260,0.0228,0.132,3.45,0.132,3.45,0.4655851086981585,0.0,0.8850031110445454,-0.46558510869815856,0.0,-0.8850031110445454,1e-05,1.0,1.0, 1.0
261,0.0228,0.132,3.45,0.132,3.45,0.528117761110111,0.0,0.8491711431743567,-0.528117761110111,0.0,-0.8491711431743567,1e-05,1.0,1.0, 1.0
262,0.0228,0.132,3.45,0.132,3.45,0.5860098081940802,0.0,0.810303958215889,-0.5860098081940801,0.0,-0.810303958215889,1e-05,1.0,1.0, 1.0
263,0.0228,0.132,3.45,0.132,3.45,0.63859982770756,0.0,0.7695389918983148,-0.63859982770756,0.0,-0.7695389918983148,1e-05,1.0,1.0, 1.0
264,0.0228,0.132,3.45,0.132,3.45,0.6854522743205742,0.0,0.7281175589345118,-0.6854522743205742,0.0,-0.7281175589345118,1e-05,1.0,1.0, 1.0
265,0.0228,0.132,3.45,0.132,3.45,0.036297583967777575,0.0,0.9993410255754049,-0.036297583967777575,0.0,-0.9993410255754049,1e-05,1.0,1.0, 1.0
266,0.0228,0.132,3.45,0.132,3.45,0.10884593078643642,0.0,0.9940586317472598,-0.10884593078643642,0.0,-0.9940586317472598,1e-05,1.0,1.0, 1.0
267,0.0228,0.132,3.45,0.132,3.45,0.18131933936130568,0.0,0.9834242711940658,-0.18131933936130568,0.0,-0.9834242711940658,1e-05,1.0,1.0, 1.0
268,0.0228,0.132,3.45,0.132,3.45,0.2533693313628707,0.0,0.9673696201167018,-0.2533693313628707,0.0,-0.9673696201167018,1e-05,1.0,1.0, 1.0
269,0.0228,0.132,3.45,0.132,3.45,0.3242967882225073,0.0,0.9459553864472502,-0.3242967882225071,0.0,-0.9459553864472502,1e-05,1.0,1.0, 1.0
270,0.0228,0.132,3.45,0.132,3.45,0.39327312240279994,0.0,0.9194216938899975,-0.39327312240279994,0.0,-0.9194216938899975,1e-05,1.0,1.0, 1.0
271,0.0228,0.132,3.45,0.132,3.45,0.4594726435897017,0.0,0.8881919217110067,-0.4594726435897017,0.0,-0.8881919217110065,1e-05,1.0,1.0, 1.0
272,0.0228,0.132,3.45,0.132,3.45,0.5221375042872202,0.0,0.8528613173410511,-0.5221375042872202,0.0,-0.8528613173410511,1e-05,1.0,1.0, 1.0
273,0.0228,0.132,3.45,0.132,3.45,0.5806234484440235,0.0,0.8141722244813872,-0.5806234484440235,0.0,-0.8141722244813872,1e-05,1.0,1.0, 1.0
274,0.0228,0.132,3.45,0.132,3.45,0.6345227887238866,0.0,0.772904153559846,-0.6345227887238865,0.0,-0.7729041535598461,1e-05,1.0,1.0, 1.0
275,0.0228,0.132,3.45,0.132,3.45,0.6838846840830471,0.0,0.7295901170360182,-0.6838846840830473,0.0,-0.7295901170360181,1e-05,1.0,1.0, 1.0
276,0.0228,0.132,3.45,0.132,3.45,0.03596632926721563,0.0,0.999353002276494,-0.03596632926721563,0.0,-0.999353002276494,1e-05,1.0,1.0, 1.0
277,0.0228,0.132,3.45,0.132,3.45,0.1079000061307422,0.0,0.9941617517672794,-0.1079000061307422,0.0,-0.9941617517672794,1e-05,1.0,1.0, 1.0
278,0.0228,0.132,3.45,0.132,3.45,0.17978807208770106,0.0,0.9837053670357744,-0.17978807208770106,0.0,-0.9837053670357744,1e-05,1.0,1.0, 1.0
279,0.0228,0.132,3.45,0.132,3.45,0.25128507523320986,0.0,0.9679131215997849,-0.25128507523320986,0.0,-0.9679131215997849,1e-05,1.0,1.0, 1.0
280,0.0228,0.132,3.45,0.132,3.45,0.32173793453131827,0.0,0.9468287603804191,-0.32173793453131816,0.0,-0.9468287603804193,1e-05,1.0,1.0, 1.0
281,0.0228,0.132,3.45,0.132,3.45,0.39038116575583265,0.0,0.9206533253201865,-0.39038116575583265,0.0,-0.9206533253201865,1e-05,1.0,1.0, 1.0
282,0.0228,0.132,3.45,0.132,3.45,0.45644528678142704,0.0,0.8897514822550288,-0.45644528678142704,0.0,-0.8897514822550289,1e-05,1.0,1.0, 1.0
283,0.0228,0.132,3.45,0.132,3.45,0.5192231031346363,0.0,0.8546387360582476,-0.519223103134636,0.0,-0.8546387360582476,1e-05,1.0,1.0, 1.0
284,0.0228,0.132,3.45,0.132,3.45,0.5781190398533196,0.0,0.8159524347405771,-0.5781190398533198,0.0,-0.8159524347405771,1e-05,1.0,1.0, 1.0
285,0.0228,0.132,3.45,0.132,3.45,0.6327674957057268,0.0,0.7743418472343485,-0.6327674957057265,0.0,-0.7743418472343486,1e-05,1.0,1.0, 1.0
286,0.0228,0.132,3.45,0.132,3.45,0.6832488782206453,0.0,0.730185572584278,-0.6832488782206451,0.0,-0.7301855725842781,1e-05,1.0,1.0, 1.0
287,0.0228,0.132,3.45,0.132,3.45,0.03578338820497562,0.0,0.9993595694886661,-0.03578338820497562,0.0,-0.9993595694886661,1e-05,1.0,1.0, 1.0
288,0.0228,0.132,3.45,0.132,3.45,0.1073752731211747,0.0,0.9942185628533362,-0.1073752731211747,0.0,-0.9942185628533362,1e-05,1.0,1.0, 1.0
289,0.0228,0.132,3.45,0.132,3.45,0.1789082650947795,0.0,0.9838657594818392,-0.1789082650947795,0.0,-0.9838657594818392,1e-05,1.0,1.0, 1.0
290,0.0228,0.132,3.45,0.132,3.45,0.2500319357386861,0.0,0.9682375902177964,-0.2500319357386861,0.0,-0.9682375902177964,1e-05,1.0,1.0, 1.0
291,0.0228,0.132,3.45,0.132,3.45,0.32013824888883535,0.0,0.9473708363668316,-0.32013824888883546,0.0,-0.9473708363668316,1e-05,1.0,1.0, 1.0
292,0.0228,0.132,3.45,0.132,3.45,0.388518589253786,0.0,0.9214408856808166,-0.3885185892537862,0.0,-0.9214408856808166,1e-05,1.0,1.0, 1.0
293,0.0228,0.132,3.45,0.132,3.45,0.45446133851247805,0.0,0.8907664631077254,-0.4544613385124779,0.0,-0.8907664631077254,1e-05,1.0,1.0, 1.0
294,0.0228,0.132,3.45,0.132,3.45,0.517302881874785,0.0,0.8558023886412343,-0.5173028818747851,0.0,-0.8558023886412341,1e-05,1.0,1.0, 1.0
295,0.0228,0.132,3.45,0.132,3.45,0.5764943478606924,0.0,0.817101136264462,-0.5764943478606925,0.0,-0.817101136264462,1e-05,1.0,1.0, 1.0
296,0.0228,0.132,3.45,0.132,3.45,0.6316795568307413,0.0,0.7752296030739011,-0.6316795568307414,0.0,-0.775229603073901,1e-05,1.0,1.0, 1.0
297,0.0228,0.132,3.45,0.132,3.45,0.6828729665078848,0.0,0.7305371391056865,-0.6828729665078846,0.0,-0.7305371391056866,1e-05,1.0,1.0, 1.0
298,0.0228,0.132,3.45,0.132,3.45,0.035661428346110025,0.0,0.9993639289709806,-0.035661428346110025,0.0,-0.9993639289709806,1e-05,1.0,1.0, 1.0
299,0.0228,0.132,3.45,0.132,3.45,0.10702493475998294,0.0,0.9942563368365431,-0.10702493475998294,0.0,-0.9942563368365431,1e-05,1.0,1.0, 1.0
300,0.0228,0.132,3.45,0.132,3.45,0.17829632395320003,0.0,0.9839768395977495,-0.17829632395320005,0.0,-0.9839768395977495,1e-05,1.0,1.0, 1.0
301,0.0228,0.132,3.45,0.132,3.45,0.24911739430513397,0.0,0.9684732953750561,-0.24911739430513397,0.0,-0.9684732953750561,1e-05,1.0,1.0, 1.0
302,0.0228,0.132,3.45,0.132,3.45,0.31892487934746433,0.0,0.9477799962719224,-0.31892487934746433,0.0,-0.9477799962719224,1e-05,1.0,1.0, 1.0
303,0.0228,0.132,3.45,0.132,3.45,0.38706531992157617,0.0,0.9220522968433017,-0.38706531992157617,0.0,-0.9220522968433017,1e-05,1.0,1.0, 1.0
304,0.0228,0.132,3.45,0.132,3.45,0.45288353256772823,0.0,0.8915696865242646,-0.4528835325677284,0.0,-0.8915696865242645,1e-05,1.0,1.0, 1.0
305,0.0228,0.132,3.45,0.132,3.45,0.5157601921680539,0.0,0.8567329946808235,-0.5157601921680539,0.0,-0.8567329946808235,1e-05,1.0,1.0, 1.0
306,0.0228,0.132,3.45,0.132,3.45,0.5751830467269697,0.0,0.8180247323631973,-0.57518304672697,0.0,-0.8180247323631972,1e-05,1.0,1.0, 1.0
307,0.0228,0.132,3.45,0.132,3.45,0.6308017743438811,0.0,0.7759440195559286,-0.630801774343881,0.0,-0.7759440195559287,1e-05,1.0,1.0, 1.0
308,0.0228,0.132,3.45,0.132,3.45,0.6825720018895376,0.0,0.7308183510534675,-0.6825720018895377,0.0,-0.7308183510534673,1e-05,1.0,1.0, 1.0
309,0.0228,0.132,3.45,0.132,3.45,0.03556952175070625,0.0,0.9993672043460432,-0.03556952175070625,0.0,-0.9993672043460432,1e-05,1.0,1.0, 1.0
310,0.0228,0.132,3.45,0.132,3.45,0.10676373621686588,0.0,0.9942844183778681,-0.10676373621686588,0.0,-0.9942844183778681,1e-05,1.0,1.0, 1.0
311,0.0228,0.132,3.45,0.132,3.45,0.17782175079337204,0.0,0.9840627139287313,-0.1778217507933721,0.0,-0.9840627139287313,1e-05,1.0,1.0, 1.0
312,0.0228,0.132,3.45,0.132,3.45,0.24837683949897485,0.0,0.9686634841886529,-0.24837683949897485,0.0,-0.9686634841886529,1e-05,1.0,1.0, 1.0
313,0.0228,0.132,3.45,0.132,3.45,0.3179067531434739,0.0,0.948121983874319,-0.31790675314347394,0.0,-0.948121983874319,1e-05,1.0,1.0, 1.0
314,0.0228,0.132,3.45,0.132,3.45,0.3858142065500557,0.0,0.9225764998221833,-0.38581420655005594,0.0,-0.9225764998221833,1e-05,1.0,1.0, 1.0
315,0.0228,0.132,3.45,0.132,3.45,0.4514971302685074,0.0,0.8922725712243442,-0.4514971302685076,0.0,-0.8922725712243442,1e-05,1.0,1.0, 1.0
316,0.0228,0.132,3.45,0.132,3.45,0.5143963919089849,0.0,0.8575525359947447,-0.5143963919089848,0.0,-0.8575525359947449,1e-05,1.0,1.0, 1.0
317,0.0228,0.132,3.45,0.132,3.45,0.5740202480510282,0.0,0.8188411047495331,-0.5740202480510285,0.0,-0.8188411047495331,1e-05,1.0,1.0, 1.0
318,0.0228,0.132,3.45,0.132,3.45,0.6300168549294727,0.0,0.776581459027175,-0.6300168549294727,0.0,-0.776581459027175,1e-05,1.0,1.0, 1.0
319,0.0228,0.132,3.45,0.132,3.45,0.6823022223496945,0.0,0.7310702273904116,-0.6823022223496945,0.0,-0.7310702273904116,1e-05,1.0,1.0, 1.0
320,0.0228,0.132,3.45,0.132,3.45,0.03550693411196618,0.0,0.9993694300057254,-0.03550693411196618,0.0,-0.9993694300057254,1e-05,1.0,1.0, 1.0
321,0.0228,0.132,3.45,0.132,3.45,0.10658455649801353,0.0,0.994303641910318,-0.10658455649801353,0.0,-0.994303641910318,1e-05,1.0,1.0, 1.0
322,0.0228,0.132,3.45,0.132,3.45,0.17747124220642285,0.0,0.9841259869496939,-0.17747124220642285,0.0,-0.9841259869496939,1e-05,1.0,1.0, 1.0
323,0.0228,0.132,3.45,0.132,3.45,0.24779110380327096,0.0,0.9688134850816005,-0.24779110380327102,0.0,-0.9688134850816005,1e-05,1.0,1.0, 1.0
324,0.0228,0.132,3.45,0.132,3.45,0.31706024726024334,0.0,0.9484053983435953,-0.3170602472602433,0.0,-0.9484053983435953,1e-05,1.0,1.0, 1.0
325,0.0228,0.132,3.45,0.132,3.45,0.38473945072498195,0.0,0.9230252190790017,-0.3847394507249818,0.0,-0.9230252190790018,1e-05,1.0,1.0, 1.0
326,0.0228,0.132,3.45,0.132,3.45,0.45028250892202015,0.0,0.8928861417666257,-0.4502825089220201,0.0,-0.8928861417666258,1e-05,1.0,1.0, 1.0
327,0.0228,0.132,3.45,0.132,3.45,0.5131801937344364,0.0,0.8582808915260122,-0.5131801937344365,0.0,-0.8582808915260121,1e-05,1.0,1.0, 1.0
328,0.0228,0.132,3.45,0.132,3.45,0.5729658465364635,0.0,0.819579244919461,-0.5729658465364635,0.0,-0.819579244919461,1e-05,1.0,1.0, 1.0
329,0.0228,0.132,3.45,0.132,3.45,0.6293049633744257,0.0,0.777158454288643,-0.6293049633744254,0.0,-0.777158454288643,1e-05,1.0,1.0, 1.0
330,0.0228,0.132,3.45,0.132,3.45,0.6820573271064194,0.0,0.7312987095164648,-0.6820573271064194,0.0,-0.7312987095164648,1e-05,1.0,1.0, 1.0
331,0.0228,0.132,3.45,0.132,3.45,0.035486993812624115,0.0,0.9993701382721734,-0.035486993812624115,0.0,-0.9993701382721734,1e-05,1.0,1.0, 1.0
332,0.0228,0.132,3.45,0.132,3.45,0.10651505172371403,0.0,0.9943110900298229,-0.10651505172371403,0.0,-0.9943110900298229,1e-05,1.0,1.0, 1.0
333,0.0228,0.132,3.45,0.132,3.45,0.17727943061563192,0.0,0.984160557775304,-0.17727943061563192,0.0,-0.984160557775304,1e-05,1.0,1.0, 1.0
334,0.0228,0.132,3.45,0.132,3.45,0.24739896442303064,0.0,0.9689136970868004,-0.24739896442303058,0.0,-0.9689136970868004,1e-05,1.0,1.0, 1.0
335,0.0228,0.132,3.45,0.132,3.45,0.31642695982179314,0.0,0.9486168768780879,-0.31642695982179314,0.0,-0.9486168768780879,1e-05,1.0,1.0, 1.0
336,0.0228,0.132,3.45,0.132,3.45,0.3838780935731867,0.0,0.9233837822241713,-0.3838780935731865,0.0,-0.9233837822241713,1e-05,1.0,1.0, 1.0
337,0.0228,0.132,3.45,0.132,3.45,0.4492646449003441,0.0,0.8933987233271424,-0.4492646449003441,0.0,-0.8933987233271424,1e-05,1.0,1.0, 1.0
338,0.0228,0.132,3.45,0.132,3.45,0.5121282388324977,0.0,0.8589089980843861,-0.5121282388324978,0.0,-0.8589089980843861,1e-05,1.0,1.0, 1.0
339,0.0228,0.132,3.45,0.132,3.45,0.5720397907012573,0.0,0.8202258700226795,-0.5720397907012573,0.0,-0.8202258700226795,1e-05,1.0,1.0, 1.0
340,0.0228,0.132,3.45,0.132,3.45,0.6286766508882056,0.0,0.7776668108052376,-0.6286766508882057,0.0,-0.7776668108052377,1e-05,1.0,1.0, 1.0
341,0.0228,0.132,3.45,0.132,3.45,0.6818398196081995,0.0,0.7315015108642345,-0.6818398196081995,0.0,-0.7315015108642345,1e-05,1.0,1.0, 1.0
342,0.0228,0.132,3.45,0.132,3.45,0.0355229044039963,0.0,0.9993688624640575,-0.0355229044039963,0.0,-0.9993688624640575,1e-05,1.0,1.0, 1.0
343,0.0228,0.132,3.45,0.132,3.45,0.10657957228176763,0.0,0.9943041761816328,-0.10657957228176763,0.0,-0.9943041761816328,1e-05,1.0,1.0, 1.0
344,0.0228,0.132,3.45,0.132,3.45,0.17727631770285612,0.0,0.9841611185073896,-0.17727631770285607,0.0,-0.9841611185073896,1e-05,1.0,1.0, 1.0
345,0.0228,0.132,3.45,0.132,3.45,0.24723076071178873,0.0,0.9689566300706499,-0.24723076071178865,0.0,-0.9689566300706499,1e-05,1.0,1.0, 1.0
346,0.0228,0.132,3.45,0.132,3.45,0.3160357794617474,0.0,0.9487472719855409,-0.31603577946174727,0.0,-0.9487472719855409,1e-05,1.0,1.0, 1.0
347,0.0228,0.132,3.45,0.132,3.45,0.3832605876439095,0.0,0.9236402557050255,-0.3832605876439096,0.0,-0.9236402557050255,1e-05,1.0,1.0, 1.0
348,0.0228,0.132,3.45,0.132,3.45,0.4484705614104384,0.0,0.8937976032347626,-0.4484705614104384,0.0,-0.8937976032347626,1e-05,1.0,1.0, 1.0
349,0.0228,0.132,3.45,0.132,3.45,0.5112690735803745,0.0,0.8594206969815573,-0.5112690735803743,0.0,-0.8594206969815573,1e-05,1.0,1.0, 1.0
350,0.0228,0.132,3.45,0.132,3.45,0.5712712470579745,0.0,0.8207613308903061,-0.5712712470579745,0.0,-0.8207613308903061,1e-05,1.0,1.0, 1.0
351,0.0228,0.132,3.45,0.132,3.45,0.6281471702784791,0.0,0.7780945523978042,-0.6281471702784792,0.0,-0.7780945523978041,1e-05,1.0,1.0, 1.0
352,0.0228,0.132,3.45,0.132,3.45,0.6816558316924284,0.0,0.7316729645953196,-0.6816558316924285,0.0,-0.7316729645953194,1e-05,1.0,1.0, 1.0
353,0.0228,0.132,3.45,0.132,3.45,0.03562399744992347,0.0,0.9993652639579225,-0.03562399744992347,0.0,-0.9993652639579225,1e-05,1.0,1.0, 1.0
354,0.0228,0.132,3.45,0.132,3.45,0.10677129910901291,0.0,0.9942836062646179,-0.10677129910901291,0.0,-0.9942836062646179,1e-05,1.0,1.0, 1.0
355,0.0228,0.132,3.45,0.132,3.45,0.17743854874581533,0.0,0.984131882127075,-0.17743854874581533,0.0,-0.984131882127075,1e-05,1.0,1.0, 1.0
356,0.0228,0.132,3.45,0.132,3.45,0.24725573638801965,0.0,0.968950257145958,-0.24725573638801973,0.0,-0.968950257145958,1e-05,1.0,1.0, 1.0
357,0.0228,0.132,3.45,0.132,3.45,0.3158502543467893,0.0,0.9488090518271148,-0.31585025434678937,0.0,-0.9488090518271148,1e-05,1.0,1.0, 1.0
358,0.0228,0.132,3.45,0.132,3.45,0.382846498345911,0.0,0.9238119715095028,-0.38284649834591106,0.0,-0.9238119715095027,1e-05,1.0,1.0, 1.0
359,0.0228,0.132,3.45,0.132,3.45,0.44787272576049075,0.0,0.8940973221746435,-0.44787272576049075,0.0,-0.8940973221746435,1e-05,1.0,1.0, 1.0
360,0.0228,0.132,3.45,0.132,3.45,0.5105774790737827,0.0,0.859831749740995,-0.5105774790737828,0.0,-0.8598317497409949,1e-05,1.0,1.0, 1.0
361,0.0228,0.132,3.45,0.132,3.45,0.5706196817186527,0.0,0.821214453620553,-0.5706196817186528,0.0,-0.8212144536205529,1e-05,1.0,1.0, 1.0
362,0.0228,0.132,3.45,0.132,3.45,0.6276856994488372,0.0,0.7784668668012942,-0.6276856994488373,0.0,-0.7784668668012941,1e-05,1.0,1.0, 1.0
363,0.0228,0.132,3.45,0.132,3.45,0.6814930267462599,0.0,0.7318246063752035,-0.6814930267462598,0.0,-0.7318246063752036,1e-05,1.0,1.0, 1.0
364,0.0228,0.132,3.45,0.132,3.45,0.9991073345055604,0.0,0.04224374672296612,-0.9991073345055604,0.0,-0.04224374672296623,1e-05,1.0,1.0, 1.0
365,0.0228,0.132,3.45,0.132,3.45,0.9920214839746216,0.0,0.12606893087826876,-0.9920214839746216,0.0,-0.12606893087826876,1e-05,1.0,1.0, 1.0
366,0.0228,0.132,3.45,0.132,3.45,0.9780024618267056,0.0,0.20859334759503528,-0.9780024618267056,0.0,-0.20859334759503528,1e-05,1.0,1.0, 1.0
367,0.0228,0.132,3.45,0.132,3.45,0.9573233798700526,0.0,0.28901893770855025,-0.9573233798700526,0.0,-0.28901893770855025,1e-05,1.0,1.0, 1.0
368,0.0228,0.132,3.45,0.132,3.45,0.9305137307030646,0.0,0.36625700945246725,-0.9305137307030646,0.0,-0.36625700945246725,1e-05,1.0,1.0, 1.0
369,0.0228,0.132,3.45,0.132,3.45,0.8983598463984441,0.0,0.4392602717967604,-0.898359846398444,0.0,-0.4392602717967605,1e-05,1.0,1.0, 1.0
370,0.0228,0.132,3.45,0.132,3.45,0.8618482151306204,0.0,0.5071662982456188,-0.8618482151306204,0.0,-0.5071662982456188,1e-05,1.0,1.0, 1.0
371,0.0228,0.132,3.45,0.132,3.45,0.8221447726551916,0.0,0.5692784668294977,-0.8221447726551916,0.0,-0.5692784668294977,1e-05,1.0,1.0, 1.0
372,0.0228,0.132,3.45,0.132,3.45,0.7808032506936461,0.0,0.6247769871772131,-0.7808032506936461,0.0,-0.6247769871772131,1e-05,1.0,1.0, 1.0
373,0.0228,0.132,3.45,0.132,3.45,0.740623433719193,0.0,0.6719203296716002,-0.7406234337191929,0.0,-0.6719203296716003,1e-05,1.0,1.0, 1.0
374,0.0228,0.132,3.45,0.132,3.45,0.7071483069005717,0.0,0.7070652530337316,-0.7071483069005718,0.0,-0.7070652530337315,1e-05,1.0,1.0, 1.0
375,0.0228,0.132,3.45,0.132,3.45,0.9988844530653986,0.0,0.047221281476040086,-0.9988844530653986,0.0,-0.047221281476040086,1e-05,1.0,1.0, 1.0
376,0.0228,0.132,3.45,0.132,3.45,0.9900792277491111,0.0,0.14051022304346433,-0.9900792277491111,0.0,-0.1405102230434642,1e-05,1.0,1.0, 1.0
377,0.0228,0.132,3.45,0.132,3.45,0.972868314182029,0.0,0.23135955407248057,-0.972868314182029,0.0,-0.23135955407248057,1e-05,1.0,1.0, 1.0
378,0.0228,0.132,3.45,0.132,3.45,0.94791328588882,0.0,0.3185284954842508,-0.94791328588882,0.0,-0.3185284954842508,1e-05,1.0,1.0, 1.0
379,0.0228,0.132,3.45,0.132,3.45,0.9162324035203987,0.0,0.4006472048314244,-0.9162324035203986,0.0,-0.4006472048314245,1e-05,1.0,1.0, 1.0
380,0.0228,0.132,3.45,0.132,3.45,0.8791140430391858,0.0,0.47661147628996164,-0.8791140430391858,0.0,-0.4766114762899616,1e-05,1.0,1.0, 1.0
381,0.0228,0.132,3.45,0.132,3.45,0.8379611240819631,0.0,0.5457299281946086,-0.8379611240819631,0.0,-0.5457299281946086,1e-05,1.0,1.0, 1.0
382,0.0228,0.132,3.45,0.132,3.45,0.7942376306583371,0.0,0.6076072629966093,-0.7942376306583371,0.0,-0.6076072629966093,1e-05,1.0,1.0, 1.0
383,0.0228,0.132,3.45,0.132,3.45,0.7496902558939118,0.0,0.661788878886402,-0.7496902558939117,0.0,-0.6617888788864021,1e-05,1.0,1.0, 1.0
384,0.0228,0.132,3.45,0.132,3.45,0.7072629057845249,0.0,0.7069506221096563,-0.7072629057845249,0.0,-0.7069506221096565,1e-05,1.0,1.0, 1.0
385,0.0228,0.132,3.45,0.132,3.45,0.6720814076847051,0.0,0.7404772659876501,-0.6720814076847053,0.0,-0.74047726598765,1e-05,1.0,1.0, 1.0
386,0.0228,0.132,3.45,0.132,3.45,0.9985455074336483,0.0,0.05391539283059761,-0.9985455074336483,0.0,-0.05391539283059761,1e-05,1.0,1.0, 1.0
387,0.0228,0.132,3.45,0.132,3.45,0.9871542905584388,0.0,0.1597698552044951,-0.9871542905584388,0.0,-0.1597698552044951,1e-05,1.0,1.0, 1.0
388,0.0228,0.132,3.45,0.132,3.45,0.9652369689472629,0.0,0.26137634509936214,-0.9652369689472629,0.0,-0.26137634509936225,1e-05,1.0,1.0, 1.0
389,0.0228,0.132,3.45,0.132,3.45,0.9341434984574711,0.0,0.35689763839178984,-0.9341434984574711,0.0,-0.35689763839178984,1e-05,1.0,1.0, 1.0
390,0.0228,0.132,3.45,0.132,3.45,0.8956934848862556,0.0,0.44467199274556873,-0.8956934848862556,0.0,-0.44467199274556873,1e-05,1.0,1.0, 1.0
391,0.0228,0.132,3.45,0.132,3.45,0.8519267511608144,0.0,0.5236609691934085,-0.8519267511608145,0.0,-0.5236609691934084,1e-05,1.0,1.0, 1.0
392,0.0228,0.132,3.45,0.132,3.45,0.8047894458525012,0.0,0.5935603994914282,-0.8047894458525012,0.0,-0.5935603994914282,1e-05,1.0,1.0, 1.0
393,0.0228,0.132,3.45,0.132,3.45,0.7560704929171609,0.0,0.6544901907133531,-0.7560704929171609,0.0,-0.6544901907133531,1e-05,1.0,1.0, 1.0
394,0.0228,0.132,3.45,0.132,3.45,0.7076437739344775,0.0,0.7065693803242329,-0.7076437739344776,0.0,-0.7065693803242328,1e-05,1.0,1.0, 1.0
395,0.0228,0.132,3.45,0.132,3.45,0.6623973492874421,0.0,0.7491526891475264,-0.6623973492874421,0.0,-0.7491526891475264,1e-05,1.0,1.0, 1.0
396,0.0228,0.132,3.45,0.132,3.45,0.6250763981977838,0.0,0.7805635761525679,-0.6250763981977837,0.0,-0.780563576152568,1e-05,1.0,1.0, 1.0
397,0.0228,0.132,3.45,0.132,3.45,0.9980546061097063,0.0,0.062345835652423576,-0.9980546061097063,0.0,-0.062345835652423576,1e-05,1.0,1.0, 1.0
398,0.0228,0.132,3.45,0.132,3.45,0.9829758434923419,0.0,0.18373483913106653,-0.9829758434923419,0.0,-0.18373483913106653,1e-05,1.0,1.0, 1.0
399,0.0228,0.132,3.45,0.132,3.45,0.9545393838469353,0.0,0.2980848280022202,-0.9545393838469353,0.0,-0.2980848280022202,1e-05,1.0,1.0, 1.0
400,0.0228,0.132,3.45,0.132,3.45,0.9152785839646159,0.0,0.4028214415044553,-0.9152785839646159,0.0,-0.4028214415044554,1e-05,1.0,1.0, 1.0
401,0.0228,0.132,3.45,0.132,3.45,0.8682511820187522,0.0,0.4961248682771702,-0.8682511820187523,0.0,-0.49612486827717006,1e-05,1.0,1.0, 1.0
402,0.0228,0.132,3.45,0.132,3.45,0.8165053725680216,0.0,0.5773378357318671,-0.8165053725680216,0.0,-0.5773378357318671,1e-05,1.0,1.0, 1.0
403,0.0228,0.132,3.45,0.132,3.45,0.7626109159669981,0.0,0.6468574733648643,-0.7626109159669981,0.0,-0.6468574733648643,1e-05,1.0,1.0, 1.0
404,0.0228,0.132,3.45,0.132,3.45,0.7086182894110562,0.0,0.7055920350401841,-0.7086182894110562,0.0,-0.7055920350401843,1e-05,1.0,1.0, 1.0
405,0.0228,0.132,3.45,0.132,3.45,0.6564018188729351,0.0,0.7544114607959653,-0.6564018188729352,0.0,-0.7544114607959652,1e-05,1.0,1.0, 1.0
406,0.0228,0.132,3.45,0.132,3.45,0.6086629368019607,0.0,0.7934289063070568,-0.6086629368019608,0.0,-0.7934289063070566,1e-05,1.0,1.0, 1.0
407,0.0228,0.132,3.45,0.132,3.45,0.5697829084232028,0.0,0.821795252644353,-0.5697829084232027,0.0,-0.8217952526443532,1e-05,1.0,1.0, 1.0
408,0.0228,0.132,3.45,0.132,3.45,0.9973321630958459,0.0,0.07299696195432372,-0.9973321630958459,0.0,-0.07299696195432372,1e-05,1.0,1.0, 1.0
409,0.0228,0.132,3.45,0.132,3.45,0.9769295911957996,0.0,0.2135616394533621,-0.9769295911957996,0.0,-0.2135616394533621,1e-05,1.0,1.0, 1.0
410,0.0228,0.132,3.45,0.132,3.45,0.939470265728841,0.0,0.34263044203832926,-0.939470265728841,0.0,-0.34263044203832926,1e-05,1.0,1.0, 1.0
411,0.0228,0.132,3.45,0.132,3.45,0.8895584752595476,0.0,0.4568213207523364,-0.8895584752595476,0.0,-0.4568213207523364,1e-05,1.0,1.0, 1.0
412,0.0228,0.132,3.45,0.132,3.45,0.8321129021383488,0.0,0.5546062730396174,-0.8321129021383488,0.0,-0.5546062730396174,1e-05,1.0,1.0, 1.0
413,0.0228,0.132,3.45,0.132,3.45,0.7714210530214936,0.0,0.6363250419048507,-0.7714210530214934,0.0,-0.636325041904851,1e-05,1.0,1.0, 1.0
414,0.0228,0.132,3.45,0.132,3.45,0.7106162658488208,0.0,0.7035797912895724,-0.7106162658488208,0.0,-0.7035797912895724,1e-05,1.0,1.0, 1.0
415,0.0228,0.132,3.45,0.132,3.45,0.6517944452064292,0.0,0.7583956758830072,-0.6517944452064293,0.0,-0.758395675883007,1e-05,1.0,1.0, 1.0
416,0.0228,0.132,3.45,0.132,3.45,0.5966087495035854,0.0,0.8025322423527718,-0.5966087495035856,0.0,-0.8025322423527717,1e-05,1.0,1.0, 1.0
417,0.0228,0.132,3.45,0.132,3.45,0.5473699353576988,0.0,0.8368907657911566,-0.5473699353576987,0.0,-0.8368907657911567,1e-05,1.0,1.0, 1.0
418,0.0228,0.132,3.45,0.132,3.45,0.5079285692043082,0.0,0.8613991923528048,-0.5079285692043081,0.0,-0.8613991923528048,1e-05,1.0,1.0, 1.0
419,0.0228,0.132,3.45,0.132,3.45,0.9962029497664033,0.0,0.08706137419497348,-0.9962029497664033,0.0,-0.08706137419497348,1e-05,1.0,1.0, 1.0
420,0.0228,0.132,3.45,0.132,3.45,0.9677051599870036,0.0,0.2520847542683369,-0.9677051599870036,0.0,-0.2520847542683369,1e-05,1.0,1.0, 1.0
421,0.0228,0.132,3.45,0.132,3.45,0.9173616420005062,0.0,0.39805479244211484,-0.9173616420005062,0.0,-0.39805479244211484,1e-05,1.0,1.0, 1.0
422,0.0228,0.132,3.45,0.132,3.45,0.8535453221668716,0.0,0.5210186014021488,-0.8535453221668717,0.0,-0.5210186014021487,1e-05,1.0,1.0, 1.0
423,0.0228,0.132,3.45,0.132,3.45,0.7838818298152757,0.0,0.6209100392854467,-0.7838818298152757,0.0,-0.6209100392854467,1e-05,1.0,1.0, 1.0
424,0.0228,0.132,3.45,0.132,3.45,0.7139063523426751,0.0,0.7002411870811202,-0.7139063523426751,0.0,-0.7002411870811202,1e-05,1.0,1.0, 1.0
425,0.0228,0.132,3.45,0.132,3.45,0.6469153089595575,0.0,0.7625618552181588,-0.6469153089595575,0.0,-0.7625618552181588,1e-05,1.0,1.0, 1.0
426,0.0228,0.132,3.45,0.132,3.45,0.5846096502282245,0.0,0.8113147088892404,-0.5846096502282243,0.0,-0.8113147088892405,1e-05,1.0,1.0, 1.0
427,0.0228,0.132,3.45,0.132,3.45,0.5280557910483356,0.0,0.8492096805502848,-0.5280557910483357,0.0,-0.8492096805502847,1e-05,1.0,1.0, 1.0
428,0.0228,0.132,3.45,0.132,3.45,0.47892161895015134,0.0,0.877857666653408,-0.4789216189501513,0.0,-0.877857666653408,1e-05,1.0,1.0, 1.0
429,0.0228,0.132,3.45,0.132,3.45,0.4403080086786503,0.0,0.8978467895434287,-0.44030800867865005,0.0,-0.8978467895434286,1e-05,1.0,1.0, 1.0
430,0.0228,0.132,3.45,0.132,3.45,0.9942635909333516,0.0,0.10695752308424597,-0.9942635909333516,0.0,-0.10695752308424597,1e-05,1.0,1.0, 1.0
431,0.0228,0.132,3.45,0.132,3.45,0.9524524540064264,0.0,0.30468725417571413,-0.9524524540064264,0.0,-0.30468725417571413,1e-05,1.0,1.0, 1.0
432,0.0228,0.132,3.45,0.132,3.45,0.8829188261481692,0.0,0.4695256611018605,-0.8829188261481692,0.0,-0.46952566110186056,1e-05,1.0,1.0, 1.0
433,0.0228,0.132,3.45,0.132,3.45,0.8011065750900027,0.0,0.5985217250422628,-0.8011065750900028,0.0,-0.5985217250422626,1e-05,1.0,1.0, 1.0
434,0.0228,0.132,3.45,0.132,3.45,0.7181223412811055,0.0,0.6959168793418817,-0.7181223412811054,0.0,-0.6959168793418818,1e-05,1.0,1.0, 1.0
435,0.0228,0.132,3.45,0.132,3.45,0.6399441245483307,0.0,0.7684214452083379,-0.6399441245483307,0.0,-0.7684214452083379,1e-05,1.0,1.0, 1.0
436,0.0228,0.132,3.45,0.132,3.45,0.5689548644237938,0.0,0.8223687507733392,-0.5689548644237937,0.0,-0.8223687507733393,1e-05,1.0,1.0, 1.0
437,0.0228,0.132,3.45,0.132,3.45,0.5057425290692029,0.0,0.8626844697168754,-0.5057425290692027,0.0,-0.8626844697168755,1e-05,1.0,1.0, 1.0
438,0.0228,0.132,3.45,0.132,3.45,0.45036363857936973,0.0,0.8928452234545196,-0.45036363857936973,0.0,-0.8928452234545196,1e-05,1.0,1.0, 1.0
439,0.0228,0.132,3.45,0.132,3.45,0.4035837445237526,0.0,0.9149427092207394,-0.4035837445237526,0.0,-0.9149427092207394,1e-05,1.0,1.0, 1.0
440,0.0228,0.132,3.45,0.132,3.45,0.3675623649338595,0.0,0.9299988752058941,-0.3675623649338595,0.0,-0.9299988752058941,1e-05,1.0,1.0, 1.0
441,0.0228,0.132,3.45,0.132,3.45,0.9904490186098484,0.0,0.1378794456573865,-0.9904490186098485,0.0,-0.13787944565738638,1e-05,1.0,1.0, 1.0
442,0.0228,0.132,3.45,0.132,3.45,0.924326459955337,0.0,0.3816026669540383,-0.9243264599553369,0.0,-0.38160266695403844,1e-05,1.0,1.0, 1.0
443,0.0228,0.132,3.45,0.132,3.45,0.8251669812345522,0.0,0.5648888856051748,-0.8251669812345522,0.0,-0.5648888856051748,1e-05,1.0,1.0, 1.0
444,0.0228,0.132,3.45,0.132,3.45,0.7214937017681314,0.0,0.692420997882732,-0.7214937017681314,0.0,-0.692420997882732,1e-05,1.0,1.0, 1.0
445,0.0228,0.132,3.45,0.132,3.45,0.6267376893195589,0.0,0.7792303053567541,-0.6267376893195589,0.0,-0.7792303053567541,1e-05,1.0,1.0, 1.0
446,0.0228,0.132,3.45,0.132,3.45,0.5444162605313856,0.0,0.8388151973283641,-0.5444162605313856,0.0,-0.8388151973283641,1e-05,1.0,1.0, 1.0
447,0.0228,0.132,3.45,0.132,3.45,0.4740234067577054,0.0,0.8805122428710569,-0.4740234067577054,0.0,-0.8805122428710569,1e-05,1.0,1.0, 1.0
448,0.0228,0.132,3.45,0.132,3.45,0.41409455571793036,0.0,0.9102338704557033,-0.41409455571793036,0.0,-0.9102338704557033,1e-05,1.0,1.0, 1.0
449,0.0228,0.132,3.45,0.132,3.45,0.3634452156041378,0.0,0.9316155726770897,-0.36344521560413773,0.0,-0.9316155726770897,1e-05,1.0,1.0, 1.0
450,0.0228,0.132,3.45,0.132,3.45,0.32184546145981346,0.0,0.9467922152920987,-0.32184546145981346,0.0,-0.9467922152920987,1e-05,1.0,1.0, 1.0
451,0.0228,0.132,3.45,0.132,3.45,0.2904633159499613,0.0,0.9568861280671557,-0.2904633159499614,0.0,-0.9568861280671556,1e-05,1.0,1.0, 1.0
452,0.0228,0.132,3.45,0.132,3.45,0.9812586856941948,0.0,0.19269507453409682,-0.9812586856941948,0.0,-0.19269507453409682,1e-05,1.0,1.0, 1.0
453,0.0228,0.132,3.45,0.132,3.45,0.8647129695464332,0.0,0.5022663439831396,-0.8647129695464332,0.0,-0.5022663439831395,1e-05,1.0,1.0, 1.0
454,0.0228,0.132,3.45,0.132,3.45,0.7212726632124312,0.0,0.6926512436301884,-0.7212726632124312,0.0,-0.6926512436301884,1e-05,1.0,1.0, 1.0
455,0.0228,0.132,3.45,0.132,3.45,0.5974463257719589,0.0,0.8019089024456497,-0.597446325771959,0.0,-0.8019089024456496,1e-05,1.0,1.0, 1.0
456,0.0228,0.132,3.45,0.132,3.45,0.4994119273762542,0.0,0.866364661556746,-0.4994119273762542,0.0,-0.866364661556746,1e-05,1.0,1.0, 1.0
457,0.0228,0.132,3.45,0.132,3.45,0.42209487345790303,0.0,0.9065516630620434,-0.4220948734579029,0.0,-0.9065516630620435,1e-05,1.0,1.0, 1.0
458,0.0228,0.132,3.45,0.132,3.45,0.3599833143078041,0.0,0.9329587415421802,-0.3599833143078043,0.0,-0.9329587415421802,1e-05,1.0,1.0, 1.0
459,0.0228,0.132,3.45,0.132,3.45,0.30929443274783247,0.0,0.9509663263602958,-0.30929443274783247,0.0,-0.9509663263602958,1e-05,1.0,1.0, 1.0
460,0.0228,0.132,3.45,0.132,3.45,0.2677851787989637,0.0,0.9634786442965962,-0.2677851787989637,0.0,-0.9634786442965962,1e-05,1.0,1.0, 1.0
461,0.0228,0.132,3.45,0.132,3.45,0.23455752611961825,0.0,0.9721022409914734,-0.23455752611961825,0.0,-0.9721022409914734,1e-05,1.0,1.0, 1.0
462,0.0228,0.132,3.45,0.132,3.45,0.20996411424825265,0.0,0.9777090930987329,-0.20996411424825265,0.0,-0.9777090930987329,1e-05,1.0,1.0, 1.0
463,0.0228,0.132,3.45,0.132,3.45,0.9497312244249294,0.0,0.31306644878096485,-0.9497312244249294,0.0,-0.31306644878096485,1e-05,1.0,1.0, 1.0
464,0.0228,0.132,3.45,0.132,3.45,0.7167365302095363,0.0,0.6973440659123691,-0.7167365302095363,0.0,-0.6973440659123691,1e-05,1.0,1.0, 1.0
465,0.0228,0.132,3.45,0.132,3.45,0.5289768088267831,0.0,0.8486362799948121,-0.528976808826783,0.0,-0.8486362799948122,1e-05,1.0,1.0, 1.0
466,0.0228,0.132,3.45,0.132,3.45,0.4083875414833376,0.0,0.9128086414803461,-0.4083875414833377,0.0,-0.9128086414803461,1e-05,1.0,1.0, 1.0
467,0.0228,0.132,3.45,0.132,3.45,0.32801104583741214,0.0,0.9446738875446102,-0.3280110458374122,0.0,-0.9446738875446102,1e-05,1.0,1.0, 1.0
468,0.0228,0.132,3.45,0.132,3.45,0.27049851179729006,0.0,0.962720393009025,-0.27049851179729006,0.0,-0.962720393009025,1e-05,1.0,1.0, 1.0
469,0.0228,0.132,3.45,0.132,3.45,0.22674931395918158,0.0,0.973953155248773,-0.22674931395918166,0.0,-0.973953155248773,1e-05,1.0,1.0, 1.0
470,0.0228,0.132,3.45,0.132,3.45,0.1922116256192206,0.0,0.9813534994979213,-0.19221162561922076,0.0,-0.9813534994979213,1e-05,1.0,1.0, 1.0
471,0.0228,0.132,3.45,0.132,3.45,0.16458086929719146,0.0,0.9863635929318258,-0.16458086929719132,0.0,-0.9863635929318258,1e-05,1.0,1.0, 1.0
472,0.0228,0.132,3.45,0.132,3.45,0.142890885195615,0.0,0.9897384477365794,-0.142890885195615,0.0,-0.9897384477365794,1e-05,1.0,1.0, 1.0
473,0.0228,0.132,3.45,0.132,3.45,0.1270790553291962,0.0,0.9918925918145769,-0.1270790553291963,0.0,-0.9918925918145769,1e-05,1.0,1.0, 1.0
474,0.0228,0.132,3.45,0.132,3.45,0.7103432773974802,0.0,0.7038554029459507,-0.71034327739748,0.0,-0.7038554029459508,1e-05,1.0,1.0, 1.0
475,0.0228,0.132,3.45,0.132,3.45,0.32384252301953825,0.0,0.9461109978667089,-0.3238425230195381,0.0,-0.946110997866709,1e-05,1.0,1.0, 1.0
476,0.0228,0.132,3.45,0.132,3.45,0.20351886596026647,0.0,0.9790710245933373,-0.20351886596026647,0.0,-0.9790710245933373,1e-05,1.0,1.0, 1.0
477,0.0228,0.132,3.45,0.132,3.45,0.14791251848968098,0.0,0.9890004483689782,-0.14791251848968098,0.0,-0.9890004483689782,1e-05,1.0,1.0, 1.0
478,0.0228,0.132,3.45,0.132,3.45,0.11557204007666715,0.0,0.9932991007508851,-0.11557204007666715,0.0,-0.9932991007508851,1e-05,1.0,1.0, 1.0
479,0.0228,0.132,3.45,0.132,3.45,0.09388732922123355,0.0,0.9955828290060569,-0.09388732922123355,0.0,-0.9955828290060569,1e-05,1.0,1.0, 1.0
480,0.0228,0.132,3.45,0.132,3.45,0.07791290577094719,0.0,0.9969601692717356,-0.07791290577094719,0.0,-0.9969601692717356,1e-05,1.0,1.0, 1.0
481,0.0228,0.132,3.45,0.132,3.45,0.06550599430809324,0.0,0.997852175780415,-0.06550599430809324,0.0,-0.997852175780415,1e-05,1.0,1.0, 1.0
482,0.0228,0.132,3.45,0.132,3.45,0.05571358641221767,0.0,0.9984467919168695,-0.05571358641221767,0.0,-0.9984467919168695,1e-05,1.0,1.0, 1.0
483,0.0228,0.132,3.45,0.132,3.45,0.04810762024246566,0.0,0.9988421581384151,-0.04810762024246578,0.0,-0.9988421581384151,1e-05,1.0,1.0, 1.0
484,0.0228,0.132,3.45,0.132,3.45,0.042617968503838505,0.0,0.9990914416411573,-0.042617968503838616,0.0,-0.9990914416411573,1e-05,1.0,1.0, 1.0
485,0.0228,0.132,3.45,0.132,3.45,0.9990943753045154,0.0,0.04254913906156132,-0.9990943753045154,0.0,-0.04254913906156132,1e-05,1.0,1.0, 1.0
486,0.0228,0.132,3.45,0.132,3.45,0.9918784784168869,0.0,0.12718916641523156,-0.9918784784168867,0.0,-0.12718916641523165,1e-05,1.0,1.0, 1.0
487,0.0228,0.132,3.45,0.132,3.45,0.9776275854893511,0.0,0.21034330055949318,-0.9776275854893511,0.0,-0.21034330055949318,1e-05,1.0,1.0, 1.0
488,0.0228,0.132,3.45,0.132,3.45,0.9566660631081507,0.0,0.2911873000272367,-0.9566660631081507,0.0,-0.2911873000272367,1e-05,1.0,1.0, 1.0
489,0.0228,0.132,3.45,0.132,3.45,0.929526599066102,0.0,0.36875506997003593,-0.929526599066102,0.0,-0.36875506997003593,1e-05,1.0,1.0, 1.0
490,0.0228,0.132,3.45,0.132,3.45,0.8969908388642278,0.0,0.44204913187749717,-0.8969908388642278,0.0,-0.4420491318774973,1e-05,1.0,1.0, 1.0
491,0.0228,0.132,3.45,0.132,3.45,0.86007643891229,0.0,0.5101651881772745,-0.86007643891229,0.0,-0.5101651881772744,1e-05,1.0,1.0, 1.0
492,0.0228,0.132,3.45,0.132,3.45,0.8200816652704045,0.0,0.5722465048275263,-0.8200816652704045,0.0,-0.5722465048275263,1e-05,1.0,1.0, 1.0
493,0.0228,0.132,3.45,0.132,3.45,0.7788616271027204,0.0,0.6271957954474048,-0.7788616271027204,0.0,-0.6271957954474048,1e-05,1.0,1.0, 1.0
494,0.0228,0.132,3.45,0.132,3.45,0.7394837604422859,0.0,0.6731743964546898,-0.7394837604422859,0.0,-0.6731743964546898,1e-05,1.0,1.0, 1.0
495,0.0228,0.132,3.45,0.132,3.45,0.7071782869340646,0.0,0.7070352682073233,-0.7071782869340646,0.0,-0.7070352682073233,1e-05,1.0,1.0, 1.0
496,0.0228,0.132,3.45,0.132,3.45,0.9988811815160069,0.0,0.04729043469017759,-0.9988811815160069,0.0,-0.04729043469017759,1e-05,1.0,1.0, 1.0
497,0.0228,0.132,3.45,0.132,3.45,0.9900091067787613,0.0,0.14100343433802992,-0.9900091067787613,0.0,-0.14100343433802992,1e-05,1.0,1.0, 1.0
498,0.0228,0.132,3.45,0.132,3.45,0.9726876455862635,0.0,0.23211795304080107,-0.9726876455862635,0.0,-0.23211795304080107,1e-05,1.0,1.0, 1.0
499,0.0228,0.132,3.45,0.132,3.45,0.9476180416370801,0.0,0.3194057719639785,-0.9476180416370801,0.0,-0.3194057719639785,1e-05,1.0,1.0, 1.0
500,0.0228,0.132,3.45,0.132,3.45,0.9157824179870201,0.0,0.4016746978661298,-0.9157824179870201,0.0,-0.4016746978661298,1e-05,1.0,1.0, 1.0
501,0.0228,0.132,3.45,0.132,3.45,0.8784227639530643,0.0,0.4778843455994964,-0.8784227639530643,0.0,-0.4778843455994964,1e-05,1.0,1.0, 1.0
502,0.0228,0.132,3.45,0.132,3.45,0.8369659555064385,0.0,0.5472549582445045,-0.8369659555064385,0.0,-0.5472549582445045,1e-05,1.0,1.0, 1.0
503,0.0228,0.132,3.45,0.132,3.45,0.7930390388909638,0.0,0.6091708157773945,-0.7930390388909638,0.0,-0.6091708157773945,1e-05,1.0,1.0, 1.0
504,0.0228,0.132,3.45,0.132,3.45,0.7487621207821898,0.0,0.6628388088228973,-0.7487621207821898,0.0,-0.6628388088228971,1e-05,1.0,1.0, 1.0
505,0.0228,0.132,3.45,0.132,3.45,0.7073568113306866,0.0,0.7068566626014665,-0.7073568113306866,0.0,-0.7068566626014665,1e-05,1.0,1.0, 1.0
506,0.0228,0.132,3.45,0.132,3.45,0.6734374699536432,0.0,0.7392441910914391,-0.6734374699536433,0.0,-0.739244191091439,1e-05,1.0,1.0, 1.0
507,0.0228,0.132,3.45,0.132,3.45,0.9985554837635093,0.0,0.05373030658598607,-0.9985554837635093,0.0,-0.05373030658598596,1e-05,1.0,1.0, 1.0
508,0.0228,0.132,3.45,0.132,3.45,0.9871764024566483,0.0,0.15963317459961082,-0.9871764024566483,0.0,-0.1596331745996107,1e-05,1.0,1.0, 1.0
509,0.0228,0.132,3.45,0.132,3.45,0.9652966226123456,0.0,0.26115595029253846,-0.9652966226123456,0.0,-0.2611559502925386,1e-05,1.0,1.0, 1.0
510,0.0228,0.132,3.45,0.132,3.45,0.934296724580168,0.0,0.3564963259821477,-0.934296724580168,0.0,-0.3564963259821478,1e-05,1.0,1.0, 1.0
511,0.0228,0.132,3.45,0.132,3.45,0.8959118521588634,0.0,0.44423186869164955,-0.8959118521588635,0.0,-0.44423186869164943,1e-05,1.0,1.0, 1.0
512,0.0228,0.132,3.45,0.132,3.45,0.8520818027365704,0.0,0.5234086371518875,-0.8520818027365704,0.0,-0.5234086371518875,1e-05,1.0,1.0, 1.0
513,0.0228,0.132,3.45,0.132,3.45,0.8047645425568628,0.0,0.5935941635858993,-0.8047645425568627,0.0,-0.5935941635858994,1e-05,1.0,1.0, 1.0
514,0.0228,0.132,3.45,0.132,3.45,0.755937347929258,0.0,0.6546439688912439,-0.755937347929258,0.0,-0.6546439688912439,1e-05,1.0,1.0, 1.0
515,0.0228,0.132,3.45,0.132,3.45,0.7078857918329623,0.0,0.7063269113668402,-0.7078857918329621,0.0,-0.7063269113668402,1e-05,1.0,1.0, 1.0
516,0.0228,0.132,3.45,0.132,3.45,0.6637741753058415,0.0,0.7479330479374807,-0.6637741753058414,0.0,-0.7479330479374808,1e-05,1.0,1.0, 1.0
517,0.0228,0.132,3.45,0.132,3.45,0.627686650746634,0.0,0.7784660997593107,-0.6276866507466341,0.0,-0.7784660997593107,1e-05,1.0,1.0, 1.0
518,0.0228,0.132,3.45,0.132,3.45,0.998075225203801,0.0,0.062014875912008806,-0.998075225203801,0.0,-0.062014875912008806,1e-05,1.0,1.0, 1.0
519,0.0228,0.132,3.45,0.132,3.45,0.9830442069887919,0.0,0.18336871899475501,-0.9830442069887919,0.0,-0.18336871899475501,1e-05,1.0,1.0, 1.0
520,0.0228,0.132,3.45,0.132,3.45,0.9547069799092917,0.0,0.29754761385781503,-0.9547069799092917,0.0,-0.29754761385781503,1e-05,1.0,1.0, 1.0
521,0.0228,0.132,3.45,0.132,3.45,0.91564788258555,0.0,0.4019812870229147,-0.91564788258555,0.0,-0.4019812870229147,1e-05,1.0,1.0, 1.0
522,0.0228,0.132,3.45,0.132,3.45,0.868809103339658,0.0,0.4951471922106994,-0.868809103339658,0.0,-0.4951471922106994,1e-05,1.0,1.0, 1.0
523,0.0228,0.132,3.45,0.132,3.45,0.8170968617527781,0.0,0.576500406343102,-0.817096861752778,0.0,-0.5765004063431021,1e-05,1.0,1.0, 1.0
524,0.0228,0.132,3.45,0.132,3.45,0.7630853529653574,0.0,0.6462977209380641,-0.7630853529653575,0.0,-0.6462977209380644,1e-05,1.0,1.0, 1.0
525,0.0228,0.132,3.45,0.132,3.45,0.7090320198847624,0.0,0.7051762863129574,-0.7090320198847624,0.0,-0.7051762863129574,1e-05,1.0,1.0, 1.0
526,0.0228,0.132,3.45,0.132,3.45,0.65725085269914,0.0,0.7536718892371225,-0.6572508526991401,0.0,-0.7536718892371225,1e-05,1.0,1.0, 1.0
527,0.0228,0.132,3.45,0.132,3.45,0.6107092108472845,0.0,0.7918549487035407,-0.6107092108472845,0.0,-0.7918549487035408,1e-05,1.0,1.0, 1.0
528,0.0228,0.132,3.45,0.132,3.45,0.5730433447109816,0.0,0.819525060679935,-0.5730433447109817,0.0,-0.8195250606799348,1e-05,1.0,1.0, 1.0
529,0.0228,0.132,3.45,0.132,3.45,0.9973598808468428,0.0,0.07261727120438766,-0.9973598808468428,0.0,-0.07261727120438766,1e-05,1.0,1.0, 1.0
530,0.0228,0.132,3.45,0.132,3.45,0.9769659244717023,0.0,0.2133953664472406,-0.9769659244717023,0.0,-0.2133953664472406,1e-05,1.0,1.0, 1.0
531,0.0228,0.132,3.45,0.132,3.45,0.9395225239379067,0.0,0.34248711948531063,-0.9395225239379067,0.0,-0.3424871194853108,1e-05,1.0,1.0, 1.0
532,0.0228,0.132,3.45,0.132,3.45,0.8897686798923292,0.0,0.45641176177073006,-0.8897686798923292,0.0,-0.45641176177073,1e-05,1.0,1.0, 1.0
533,0.0228,0.132,3.45,0.132,3.45,0.8325151834683688,0.0,0.5540022286007774,-0.832515183468369,0.0,-0.5540022286007773,1e-05,1.0,1.0, 1.0
534,0.0228,0.132,3.45,0.132,3.45,0.7718861462375904,0.0,0.6357607861817848,-0.7718861462375904,0.0,-0.6357607861817848,1e-05,1.0,1.0, 1.0
535,0.0228,0.132,3.45,0.132,3.45,0.7110081600452846,0.0,0.7031837571709254,-0.7110081600452846,0.0,-0.7031837571709254,1e-05,1.0,1.0, 1.0
536,0.0228,0.132,3.45,0.132,3.45,0.652186445732142,0.0,0.7580585993201816,-0.6521864457321419,0.0,-0.7580585993201817,1e-05,1.0,1.0, 1.0
537,0.0228,0.132,3.45,0.132,3.45,0.5975152197190279,0.0,0.8018575697741599,-0.597515219719028,0.0,-0.8018575697741599,1e-05,1.0,1.0, 1.0
538,0.0228,0.132,3.45,0.132,3.45,0.5495408592744466,0.0,0.8354668419440133,-0.5495408592744466,0.0,-0.8354668419440133,1e-05,1.0,1.0, 1.0
539,0.0228,0.132,3.45,0.132,3.45,0.5113279437566093,0.0,0.8593856724042109,-0.5113279437566092,0.0,-0.859385672404211,1e-05,1.0,1.0, 1.0
540,0.0228,0.132,3.45,0.132,3.45,0.9962367811109233,0.0,0.08667338669826143,-0.9962367811109233,0.0,-0.08667338669826143,1e-05,1.0,1.0, 1.0
541,0.0228,0.132,3.45,0.132,3.45,0.967608633424557,0.0,0.25245501088760597,-0.967608633424557,0.0,-0.25245501088760597,1e-05,1.0,1.0, 1.0
542,0.0228,0.132,3.45,0.132,3.45,0.9170125938929511,0.0,0.3988582488074197,-0.9170125938929511,0.0,-0.39885824880741977,1e-05,1.0,1.0, 1.0
543,0.0228,0.132,3.45,0.132,3.45,0.8531510730548765,0.0,0.5216639210692195,-0.8531510730548765,0.0,-0.5216639210692195,1e-05,1.0,1.0, 1.0
544,0.0228,0.132,3.45,0.132,3.45,0.7836079003304928,0.0,0.6212557110720485,-0.7836079003304928,0.0,-0.6212557110720485,1e-05,1.0,1.0, 1.0
545,0.0228,0.132,3.45,0.132,3.45,0.7137346424674843,0.0,0.700416204939472,-0.7137346424674843,0.0,-0.700416204939472,1e-05,1.0,1.0, 1.0
546,0.0228,0.132,3.45,0.132,3.45,0.6467805922809975,0.0,0.7626761209377424,-0.6467805922809974,0.0,-0.7626761209377425,1e-05,1.0,1.0, 1.0
547,0.0228,0.132,3.45,0.132,3.45,0.5846241068421274,0.0,0.8113042916804057,-0.5846241068421275,0.0,-0.8113042916804056,1e-05,1.0,1.0, 1.0
548,0.0228,0.132,3.45,0.132,3.45,0.5287232086071039,0.0,0.8487943029263386,-0.5287232086071038,0.0,-0.8487943029263385,1e-05,1.0,1.0, 1.0
549,0.0228,0.132,3.45,0.132,3.45,0.4809385894710329,0.0,0.8767542832274121,-0.48093858947103274,0.0,-0.8767542832274121,1e-05,1.0,1.0, 1.0
550,0.0228,0.132,3.45,0.132,3.45,0.4435832982714124,0.0,0.896233149071521,-0.4435832982714124,0.0,-0.896233149071521,1e-05,1.0,1.0, 1.0
551,0.0228,0.132,3.45,0.132,3.45,0.9943071475866646,0.0,0.10655184774592516,-0.9943071475866646,0.0,-0.10655184774592516,1e-05,1.0,1.0, 1.0
552,0.0228,0.132,3.45,0.132,3.45,0.952081956270083,0.0,0.30584301290847227,-0.952081956270083,0.0,-0.30584301290847216,1e-05,1.0,1.0, 1.0
553,0.0228,0.132,3.45,0.132,3.45,0.8817883376454295,0.0,0.4716453408998231,-0.8817883376454295,0.0,-0.4716453408998231,1e-05,1.0,1.0, 1.0
554,0.0228,0.132,3.45,0.132,3.45,0.7995878015035345,0.0,0.6005492050504642,-0.7995878015035345,0.0,-0.600549205050464,1e-05,1.0,1.0, 1.0
555,0.0228,0.132,3.45,0.132,3.45,0.7166413679281289,0.0,0.6974418612143238,-0.7166413679281287,0.0,-0.6974418612143239,1e-05,1.0,1.0, 1.0
556,0.0228,0.132,3.45,0.132,3.45,0.6386997435569202,0.0,0.7694560660494688,-0.63869974355692,0.0,-0.7694560660494689,1e-05,1.0,1.0, 1.0
557,0.0228,0.132,3.45,0.132,3.45,0.5680143776924145,0.0,0.8230186308551581,-0.5680143776924144,0.0,-0.8230186308551583,1e-05,1.0,1.0, 1.0
558,0.0228,0.132,3.45,0.132,3.45,0.5052266151744816,0.0,0.8629867132924679,-0.5052266151744816,0.0,-0.8629867132924679,1e-05,1.0,1.0, 1.0
559,0.0228,0.132,3.45,0.132,3.45,0.450699578133991,0.0,0.8926756915419186,-0.45069957813399086,0.0,-0.8926756915419187,1e-05,1.0,1.0, 1.0
560,0.0228,0.132,3.45,0.132,3.45,0.40534198290740847,0.0,0.9141651256160946,-0.40534198290740847,0.0,-0.9141651256160946,1e-05,1.0,1.0, 1.0
561,0.0228,0.132,3.45,0.132,3.45,0.37057428890981325,0.0,0.9288028296678397,-0.37057428890981325,0.0,-0.9288028296678397,1e-05,1.0,1.0, 1.0
562,0.0228,0.132,3.45,0.132,3.45,0.9905199616740221,0.0,0.13736886665214015,-0.9905199616740221,0.0,-0.13736886665214007,1e-05,1.0,1.0, 1.0
563,0.0228,0.132,3.45,0.132,3.45,0.9235141174390618,0.0,0.38356443381881844,-0.9235141174390618,0.0,-0.38356443381881844,1e-05,1.0,1.0, 1.0
564,0.0228,0.132,3.45,0.132,3.45,0.8228906388607014,0.0,0.5681997857051927,-0.8228906388607014,0.0,-0.5681997857051927,1e-05,1.0,1.0, 1.0
565,0.0228,0.132,3.45,0.132,3.45,0.718478262670161,0.0,0.6955494131048255,-0.7184782626701611,0.0,-0.6955494131048252,1e-05,1.0,1.0, 1.0
566,0.0228,0.132,3.45,0.132,3.45,0.6237581058895092,0.0,0.7816174418071361,-0.6237581058895091,0.0,-0.7816174418071363,1e-05,1.0,1.0, 1.0
567,0.0228,0.132,3.45,0.132,3.45,0.541913090018313,0.0,0.8404345321717829,-0.5419130900183131,0.0,-0.8404345321717829,1e-05,1.0,1.0, 1.0
568,0.0228,0.132,3.45,0.132,3.45,0.4722012993061141,0.0,0.88149074466702,-0.4722012993061142,0.0,-0.8814907446670199,1e-05,1.0,1.0, 1.0
569,0.0228,0.132,3.45,0.132,3.45,0.41307716597177274,0.0,0.9106960277462115,-0.4130771659717729,0.0,-0.9106960277462116,1e-05,1.0,1.0, 1.0
570,0.0228,0.132,3.45,0.132,3.45,0.3634922275477488,0.0,0.9315972308419426,-0.3634922275477488,0.0,-0.9315972308419426,1e-05,1.0,1.0, 1.0
571,0.0228,0.132,3.45,0.132,3.45,0.3233180839790355,0.0,0.9462903447526692,-0.3233180839790355,0.0,-0.9462903447526692,1e-05,1.0,1.0, 1.0
572,0.0228,0.132,3.45,0.132,3.45,0.2931068241412097,0.0,0.9560796983734432,-0.2931068241412096,0.0,-0.9560796983734432,1e-05,1.0,1.0, 1.0
573,0.0228,0.132,3.45,0.132,3.45,0.9814334425119594,0.0,0.1918030185349658,-0.9814334425119594,0.0,-0.1918030185349658,1e-05,1.0,1.0, 1.0
574,0.0228,0.132,3.45,0.132,3.45,0.8633650936994494,0.0,0.5045797409541339,-0.8633650936994494,0.0,-0.5045797409541339,1e-05,1.0,1.0, 1.0
575,0.0228,0.132,3.45,0.132,3.45,0.7178454392610504,0.0,0.6962025031067538,-0.7178454392610503,0.0,-0.6962025031067539,1e-05,1.0,1.0, 1.0
576,0.0228,0.132,3.45,0.132,3.45,0.5931933564317643,0.0,0.8050600237778658,-0.5931933564317642,0.0,-0.8050600237778658,1e-05,1.0,1.0, 1.0
577,0.0228,0.132,3.45,0.132,3.45,0.49531850099863556,0.0,0.8687114495437853,-0.4953185009986356,0.0,-0.8687114495437852,1e-05,1.0,1.0, 1.0
578,0.0228,0.132,3.45,0.132,3.45,0.4186985521797767,0.0,0.9081252790240777,-0.41869855217977686,0.0,-0.9081252790240775,1e-05,1.0,1.0, 1.0
579,0.0228,0.132,3.45,0.132,3.45,0.35755483091518336,0.0,0.9338921473538658,-0.35755483091518336,0.0,-0.9338921473538658,1e-05,1.0,1.0, 1.0
580,0.0228,0.132,3.45,0.132,3.45,0.3079504721518288,0.0,0.9514023894764327,-0.3079504721518288,0.0,-0.9514023894764327,1e-05,1.0,1.0, 1.0
581,0.0228,0.132,3.45,0.132,3.45,0.26762210489666477,0.0,0.9635239535012499,-0.2676221048966648,0.0,-0.9635239535012496,1e-05,1.0,1.0, 1.0
582,0.0228,0.132,3.45,0.132,3.45,0.23569286426364527,0.0,0.971827594656171,-0.2356928642636454,0.0,-0.971827594656171,1e-05,1.0,1.0, 1.0
583,0.0228,0.132,3.45,0.132,3.45,0.21207953987078113,0.0,0.9772524079111792,-0.2120795398707812,0.0,-0.9772524079111792,1e-05,1.0,1.0, 1.0
584,0.0228,0.132,3.45,0.132,3.45,0.950241444713392,0.0,0.3115143604218041,-0.950241444713392,0.0,-0.3115143604218041,1e-05,1.0,1.0, 1.0
585,0.0228,0.132,3.45,0.132,3.45,0.7145213527328288,0.0,0.6996136337213908,-0.7145213527328288,0.0,-0.6996136337213908,1e-05,1.0,1.0, 1.0
586,0.0228,0.132,3.45,0.132,3.45,0.5247903502966923,0.0,0.8512315127128899,-0.5247903502966923,0.0,-0.8512315127128899,1e-05,1.0,1.0, 1.0
587,0.0228,0.132,3.45,0.132,3.45,0.40389064101726124,0.0,0.9148072748391685,-0.40389064101726124,0.0,-0.9148072748391682,1e-05,1.0,1.0, 1.0
588,0.0228,0.132,3.45,0.132,3.45,0.32388524066314023,0.0,0.9460963750488529,-0.32388524066314023,0.0,-0.9460963750488529,1e-05,1.0,1.0, 1.0
589,0.0228,0.132,3.45,0.132,3.45,0.2671279360839217,0.0,0.9636610741145168,-0.2671279360839217,0.0,-0.9636610741145168,1e-05,1.0,1.0, 1.0
590,0.0228,0.132,3.45,0.132,3.45,0.224367507156518,0.0,0.9745046032381632,-0.224367507156518,0.0,-0.9745046032381632,1e-05,1.0,1.0, 1.0
591,0.0228,0.132,3.45,0.132,3.45,0.190864701479546,0.0,0.9816163536377762,-0.190864701479546,0.0,-0.9816163536377762,1e-05,1.0,1.0, 1.0
592,0.0228,0.132,3.45,0.132,3.45,0.16425799146731326,0.0,0.986417412781792,-0.16425799146731326,0.0,-0.986417412781792,1e-05,1.0,1.0, 1.0
593,0.0228,0.132,3.45,0.132,3.45,0.1435436863861191,0.0,0.9896439814896483,-0.1435436863861191,0.0,-0.9896439814896483,1e-05,1.0,1.0, 1.0
594,0.0228,0.132,3.45,0.132,3.45,0.1284154857634615,0.0,0.9917204560843413,-0.1284154857634615,0.0,-0.9917204560843413,1e-05,1.0,1.0, 1.0
595,0.0228,0.132,3.45,0.132,3.45,0.7096805586948918,0.0,0.7045236011735209,-0.7096805586948917,0.0,-0.704523601173521,1e-05,1.0,1.0, 1.0
596,0.0228,0.132,3.45,0.132,3.45,0.31983068989484625,0.0,0.9474747119587872,-0.31983068989484637,0.0,-0.9474747119587871,1e-05,1.0,1.0, 1.0
597,0.0228,0.132,3.45,0.132,3.45,0.19991117929584576,0.0,0.9798140233700191,-0.19991117929584576,0.0,-0.9798140233700191,1e-05,1.0,1.0, 1.0
598,0.0228,0.132,3.45,0.132,3.45,0.14486155439079507,0.0,0.9894519341835069,-0.14486155439079507,0.0,-0.9894519341835069,1e-05,1.0,1.0, 1.0
599,0.0228,0.132,3.45,0.132,3.45,0.11304515423739393,0.0,0.9935898515501473,-0.11304515423739393,0.0,-0.9935898515501473,1e-05,1.0,1.0, 1.0
600,0.0228,0.132,3.45,0.132,3.45,0.09193308151996694,0.0,0.9957651874424226,-0.09193308151996694,0.0,-0.9957651874424226,1e-05,1.0,1.0, 1.0
601,0.0228,0.132,3.45,0.132,3.45,0.07657271996062301,0.0,0.9970639992286513,-0.07657271996062301,0.0,-0.9970639992286513,1e-05,1.0,1.0, 1.0
602,0.0228,0.132,3.45,0.132,3.45,0.06471369903759613,0.0,0.9979038717015138,-0.06471369903759613,0.0,-0.9979038717015138,1e-05,1.0,1.0, 1.0
603,0.0228,0.132,3.45,0.132,3.45,0.05539779625130148,0.0,0.9984643629947437,-0.05539779625130148,0.0,-0.9984643629947437,1e-05,1.0,1.0, 1.0
604,0.0228,0.132,3.45,0.132,3.45,0.048205524033132975,0.0,0.9988374379510867,-0.048205524033132975,0.0,-0.9988374379510867,1e-05,1.0,1.0, 1.0
605,0.0228,0.132,3.45,0.132,3.45,0.042990645491155006,0.0,0.9990754748267289,-0.042990645491155006,0.0,-0.9990754748267289,1e-05,1.0,1.0, 1.0
606,0.0228,0.132,3.45,0.132,3.45,0.999133451326585,0.0,0.04162146609895565,-0.999133451326585,0.0,-0.04162146609895565,1e-05,1.0,1.0, 1.0
607,0.0228,0.132,3.45,0.132,3.45,0.9922509596201078,0.0,0.12424988182278111,-0.9922509596201078,0.0,-0.12424988182278111,1e-05,1.0,1.0, 1.0
608,0.0228,0.132,3.45,0.132,3.45,0.9785862209896836,0.0,0.20583733405077487,-0.9785862209896836,0.0,-0.2058373340507748,1e-05,1.0,1.0, 1.0
609,0.0228,0.132,3.45,0.132,3.45,0.9583168444548241,0.0,0.2857075876383899,-0.9583168444548241,0.0,-0.2857075876383899,1e-05,1.0,1.0, 1.0
610,0.0228,0.132,3.45,0.132,3.45,0.931872539876459,0.0,0.3627858451265669,-0.931872539876459,0.0,-0.3627858451265669,1e-05,1.0,1.0, 1.0
611,0.0228,0.132,3.45,0.132,3.45,0.8999544601324451,0.0,0.435983909895445,-0.8999544601324451,0.0,-0.435983909895445,1e-05,1.0,1.0, 1.0
612,0.0228,0.132,3.45,0.132,3.45,0.86349223422216,0.0,0.5043621332316912,-0.86349223422216,0.0,-0.5043621332316912,1e-05,1.0,1.0, 1.0
613,0.0228,0.132,3.45,0.132,3.45,0.8236233837074485,0.0,0.5671371278714639,-0.8236233837074485,0.0,-0.5671371278714639,1e-05,1.0,1.0, 1.0
614,0.0228,0.132,3.45,0.132,3.45,0.7819069643678144,0.0,0.6233951387948974,-0.7819069643678144,0.0,-0.6233951387948974,1e-05,1.0,1.0, 1.0
615,0.0228,0.132,3.45,0.132,3.45,0.7411756206369788,0.0,0.6713111792405881,-0.7411756206369788,0.0,-0.6713111792405881,1e-05,1.0,1.0, 1.0
616,0.0228,0.132,3.45,0.132,3.45,0.7071552326167025,0.0,0.7070583264362407,-0.7071552326167025,0.0,-0.7070583264362407,1e-05,1.0,1.0, 1.0
617,0.0228,0.132,3.45,0.132,3.45,0.9989189480493884,0.0,0.04648586051589356,-0.9989189480493884,0.0,-0.04648586051589356,1e-05,1.0,1.0, 1.0
618,0.0228,0.132,3.45,0.132,3.45,0.990389880965775,0.0,0.13830359243561977,-0.990389880965775,0.0,-0.13830359243561977,1e-05,1.0,1.0, 1.0
619,0.0228,0.132,3.45,0.132,3.45,0.9736584523608247,0.0,0.22801144301618642,-0.9736584523608247,0.0,-0.22801144301618656,1e-05,1.0,1.0, 1.0
620,0.0228,0.132,3.45,0.132,3.45,0.9492372270905568,0.0,0.31456110170431234,-0.9492372270905568,0.0,-0.31456110170431234,1e-05,1.0,1.0, 1.0
621,0.0228,0.132,3.45,0.132,3.45,0.9179859922610385,0.0,0.3966128061630344,-0.9179859922610385,0.0,-0.39661280616303435,1e-05,1.0,1.0, 1.0
622,0.0228,0.132,3.45,0.132,3.45,0.8810619558188212,0.0,0.47300087738683294,-0.8810619558188212,0.0,-0.47300087738683294,1e-05,1.0,1.0, 1.0
623,0.0228,0.132,3.45,0.132,3.45,0.8398006504824664,0.0,0.5428948953980193,-0.8398006504824664,0.0,-0.5428948953980193,1e-05,1.0,1.0, 1.0
624,0.0228,0.132,3.45,0.132,3.45,0.795674437682662,0.0,0.6057245159463002,-0.795674437682662,0.0,-0.6057245159463002,1e-05,1.0,1.0, 1.0
625,0.0228,0.132,3.45,0.132,3.45,0.750494779029267,0.0,0.660876377736269,-0.750494779029267,0.0,-0.660876377736269,1e-05,1.0,1.0, 1.0
626,0.0228,0.132,3.45,0.132,3.45,0.7073206694541655,0.0,0.7068928282016385,-0.7073206694541655,0.0,-0.7068928282016386,1e-05,1.0,1.0, 1.0
627,0.0228,0.132,3.45,0.132,3.45,0.6715151535580782,0.0,0.7409908221711459,-0.6715151535580782,0.0,-0.7409908221711459,1e-05,1.0,1.0, 1.0
628,0.0228,0.132,3.45,0.132,3.45,0.9985880741989944,0.0,0.05312116402662628,-0.9985880741989944,0.0,-0.05312116402662628,1e-05,1.0,1.0, 1.0
629,0.0228,0.132,3.45,0.132,3.45,0.987541536560594,0.0,0.1573585509832276,-0.987541536560594,0.0,-0.1573585509832276,1e-05,1.0,1.0, 1.0
630,0.0228,0.132,3.45,0.132,3.45,0.9662128603855173,0.0,0.25774543337494277,-0.9662128603855171,0.0,-0.2577454333749428,1e-05,1.0,1.0, 1.0
631,0.0228,0.132,3.45,0.132,3.45,0.9357468432657122,0.0,0.35267243345384197,-0.9357468432657122,0.0,-0.3526724334538418,1e-05,1.0,1.0, 1.0
632,0.0228,0.132,3.45,0.132,3.45,0.8977473002117439,0.0,0.44051082275300024,-0.8977473002117439,0.0,-0.44051082275300024,1e-05,1.0,1.0, 1.0
633,0.0228,0.132,3.45,0.132,3.45,0.8540776031829863,0.0,0.5201456024433977,-0.8540776031829863,0.0,-0.5201456024433977,1e-05,1.0,1.0, 1.0
634,0.0228,0.132,3.45,0.132,3.45,0.8066226113656331,0.0,0.5910668006525885,-0.8066226113656331,0.0,-0.5910668006525885,1e-05,1.0,1.0, 1.0
635,0.0228,0.132,3.45,0.132,3.45,0.7572202265372971,0.0,0.6531596501031002,-0.7572202265372971,0.0,-0.6531596501031004,1e-05,1.0,1.0, 1.0
636,0.0228,0.132,3.45,0.132,3.45,0.7078932395700194,0.0,0.7063194471137427,-0.7078932395700194,0.0,-0.7063194471137427,1e-05,1.0,1.0, 1.0
637,0.0228,0.132,3.45,0.132,3.45,0.661744651748526,0.0,0.7497292950673742,-0.661744651748526,0.0,-0.7497292950673742,1e-05,1.0,1.0, 1.0
638,0.0228,0.132,3.45,0.132,3.45,0.623798030350181,0.0,0.7815855790194921,-0.623798030350181,0.0,-0.7815855790194921,1e-05,1.0,1.0, 1.0
639,0.0228,0.132,3.45,0.132,3.45,0.9981031793383793,0.0,0.06156332832635996,-0.9981031793383793,0.0,-0.06156332832635996,1e-05,1.0,1.0, 1.0
640,0.0228,0.132,3.45,0.132,3.45,0.9834089298840668,0.0,0.18140252651017447,-0.9834089298840668,0.0,-0.18140252651017447,1e-05,1.0,1.0, 1.0
641,0.0228,0.132,3.45,0.132,3.45,0.9556030104615648,0.0,0.2946572354394076,-0.9556030104615648,0.0,-0.2946572354394076,1e-05,1.0,1.0, 1.0
642,0.0228,0.132,3.45,0.132,3.45,0.9169774112603298,0.0,0.39893912723409797,-0.9169774112603298,0.0,-0.398939127234098,1e-05,1.0,1.0, 1.0
643,0.0228,0.132,3.45,0.132,3.45,0.870343688188688,0.0,0.4924447831281307,-0.870343688188688,0.0,-0.4924447831281308,1e-05,1.0,1.0, 1.0
644,0.0228,0.132,3.45,0.132,3.45,0.8185552899244373,0.0,0.5744277477078561,-0.8185552899244373,0.0,-0.5744277477078561,1e-05,1.0,1.0, 1.0
645,0.0228,0.132,3.45,0.132,3.45,0.764132740201816,0.0,0.6450590324549095,-0.764132740201816,0.0,-0.6450590324549095,1e-05,1.0,1.0, 1.0
646,0.0228,0.132,3.45,0.132,3.45,0.709216952726602,0.0,0.7049902935255158,-0.709216952726602,0.0,-0.7049902935255158,1e-05,1.0,1.0, 1.0
647,0.0228,0.132,3.45,0.132,3.45,0.6559135554003632,0.0,0.7548360138745732,-0.6559135554003632,0.0,-0.7548360138745731,1e-05,1.0,1.0, 1.0
648,0.0228,0.132,3.45,0.132,3.45,0.6072244656238337,0.0,0.7945303319243701,-0.6072244656238337,0.0,-0.79453033192437,1e-05,1.0,1.0, 1.0
649,0.0228,0.132,3.45,0.132,3.45,0.5678155446885895,0.0,0.8231558219498908,-0.5678155446885895,0.0,-0.823155821949891,1e-05,1.0,1.0, 1.0
650,0.0228,0.132,3.45,0.132,3.45,0.997383108393415,0.0,0.07229754554263389,-0.997383108393415,0.0,-0.07229754554263389,1e-05,1.0,1.0, 1.0
651,0.0228,0.132,3.45,0.132,3.45,0.9773525783980276,0.0,0.21161743193491225,-0.9773525783980276,0.0,-0.21161743193491225,1e-05,1.0,1.0, 1.0
652,0.0228,0.132,3.45,0.132,3.45,0.9404450173616575,0.0,0.3399458329199402,-0.9404450173616574,0.0,-0.3399458329199403,1e-05,1.0,1.0, 1.0
653,0.0228,0.132,3.45,0.132,3.45,0.8910348715529365,0.0,0.45393486060958343,-0.8910348715529365,0.0,-0.45393486060958343,1e-05,1.0,1.0, 1.0
654,0.0228,0.132,3.45,0.132,3.45,0.8338311404895716,0.0,0.552019591273589,-0.8338311404895716,0.0,-0.552019591273589,1e-05,1.0,1.0, 1.0
655,0.0228,0.132,3.45,0.132,3.45,0.7729439015291456,0.0,0.6344743691347211,-0.7729439015291456,0.0,-0.6344743691347211,1e-05,1.0,1.0, 1.0
656,0.0228,0.132,3.45,0.132,3.45,0.7114564001024264,0.0,0.7027302403862354,-0.7114564001024265,0.0,-0.7027302403862353,1e-05,1.0,1.0, 1.0
657,0.0228,0.132,3.45,0.132,3.45,0.6515952895034343,0.0,0.758566792508699,-0.6515952895034343,0.0,-0.758566792508699,1e-05,1.0,1.0, 1.0
658,0.0228,0.132,3.45,0.132,3.45,0.5952817492551524,0.0,0.8035170433809888,-0.5952817492551524,0.0,-0.8035170433809888,1e-05,1.0,1.0, 1.0
659,0.0228,0.132,3.45,0.132,3.45,0.5451751629898466,0.0,0.8383221586353269,-0.5451751629898466,0.0,-0.8383221586353269,1e-05,1.0,1.0, 1.0
660,0.0228,0.132,3.45,0.132,3.45,0.505383403227137,0.0,0.8628949042279463,-0.505383403227137,0.0,-0.8628949042279463,1e-05,1.0,1.0, 1.0
661,0.0228,0.132,3.45,0.132,3.45,0.9962517449700705,0.0,0.08650121758732343,-0.9962517449700705,0.0,-0.08650121758732346,1e-05,1.0,1.0, 1.0
662,0.0228,0.132,3.45,0.132,3.45,0.9680297933796564,0.0,0.25083524299695165,-0.9680297933796564,0.0,-0.25083524299695165,1e-05,1.0,1.0, 1.0
663,0.0228,0.132,3.45,0.132,3.45,0.9179736178603564,0.0,0.39664144628665376,-0.9179736178603564,0.0,-0.39664144628665365,1e-05,1.0,1.0, 1.0
664,0.0228,0.132,3.45,0.132,3.45,0.8543389455246593,0.0,0.5197162361903016,-0.8543389455246593,0.0,-0.5197162361903014,1e-05,1.0,1.0, 1.0
665,0.0228,0.132,3.45,0.132,3.45,0.7846690609104606,0.0,0.6199148851656135,-0.7846690609104606,0.0,-0.6199148851656135,1e-05,1.0,1.0, 1.0
666,0.0228,0.132,3.45,0.132,3.45,0.7143765981774296,0.0,0.6997614421904392,-0.7143765981774296,0.0,-0.6997614421904392,1e-05,1.0,1.0, 1.0
667,0.0228,0.132,3.45,0.132,3.45,0.6466870839280631,0.0,0.7627554099976074,-0.646687083928063,0.0,-0.7627554099976075,1e-05,1.0,1.0, 1.0
668,0.0228,0.132,3.45,0.132,3.45,0.5834041795261435,0.0,0.8121819767216134,-0.5834041795261437,0.0,-0.8121819767216133,1e-05,1.0,1.0, 1.0
669,0.0228,0.132,3.45,0.132,3.45,0.5258613811420638,0.0,0.8505702838821498,-0.5258613811420638,0.0,-0.8505702838821498,1e-05,1.0,1.0, 1.0
670,0.0228,0.132,3.45,0.132,3.45,0.4760686391435449,0.0,0.8794081252888293,-0.4760686391435449,0.0,-0.8794081252888293,1e-05,1.0,1.0, 1.0
671,0.0228,0.132,3.45,0.132,3.45,0.4373426392764377,0.0,0.8992949548789428,-0.4373426392764377,0.0,-0.8992949548789426,1e-05,1.0,1.0, 1.0
672,0.0228,0.132,3.45,0.132,3.45,0.9943069597810082,0.0,0.10655360027257871,-0.9943069597810082,0.0,-0.10655360027257871,1e-05,1.0,1.0, 1.0
673,0.0228,0.132,3.45,0.132,3.45,0.9525417168766103,0.0,0.3044080774384273,-0.9525417168766103,0.0,-0.30440807743842735,1e-05,1.0,1.0, 1.0
674,0.0228,0.132,3.45,0.132,3.45,0.8827543190969611,0.0,0.4698348775002347,-0.8827543190969611,0.0,-0.4698348775002347,1e-05,1.0,1.0, 1.0
675,0.0228,0.132,3.45,0.132,3.45,0.8005983489624068,0.0,0.599201371526024,-0.8005983489624068,0.0,-0.599201371526024,1e-05,1.0,1.0, 1.0
676,0.0228,0.132,3.45,0.132,3.45,0.7173347224460477,0.0,0.6967287104556922,-0.7173347224460476,0.0,-0.6967287104556922,1e-05,1.0,1.0, 1.0
677,0.0228,0.132,3.45,0.132,3.45,0.6388492346790435,0.0,0.7693319539379606,-0.6388492346790436,0.0,-0.7693319539379605,1e-05,1.0,1.0, 1.0
678,0.0228,0.132,3.45,0.132,3.45,0.5673774691990892,0.0,0.8234578358636444,-0.5673774691990892,0.0,-0.8234578358636444,1e-05,1.0,1.0, 1.0
679,0.0228,0.132,3.45,0.132,3.45,0.5034849924650999,0.0,0.8640039712654208,-0.5034849924650999,0.0,-0.8640039712654208,1e-05,1.0,1.0, 1.0
680,0.0228,0.132,3.45,0.132,3.45,0.4474352595806386,0.0,0.8943163246212197,-0.4474352595806386,0.0,-0.8943163246212197,1e-05,1.0,1.0, 1.0
681,0.0228,0.132,3.45,0.132,3.45,0.4002991444052073,0.0,0.9163845235426332,-0.4002991444052074,0.0,-0.9163845235426332,1e-05,1.0,1.0, 1.0
682,0.0228,0.132,3.45,0.132,3.45,0.3644063068118617,0.0,0.9312400568895967,-0.3644063068118617,0.0,-0.9312400568895967,1e-05,1.0,1.0, 1.0
683,0.0228,0.132,3.45,0.132,3.45,0.9904925297903643,0.0,0.1375665236512287,-0.9904925297903643,0.0,-0.1375665236512288,1e-05,1.0,1.0, 1.0
684,0.0228,0.132,3.45,0.132,3.45,0.9239715118805719,0.0,0.38246129900047426,-0.9239715118805719,0.0,-0.38246129900047426,1e-05,1.0,1.0, 1.0
685,0.0228,0.132,3.45,0.132,3.45,0.82367100856541,0.0,0.5670679585806628,-0.82367100856541,0.0,-0.5670679585806627,1e-05,1.0,1.0, 1.0
686,0.0228,0.132,3.45,0.132,3.45,0.7190423280620857,0.0,0.6949662800849087,-0.7190423280620857,0.0,-0.6949662800849087,1e-05,1.0,1.0, 1.0
687,0.0228,0.132,3.45,0.132,3.45,0.6239024223654689,0.0,0.7815022503911937,-0.623902422365469,0.0,-0.7815022503911936,1e-05,1.0,1.0, 1.0
688,0.0228,0.132,3.45,0.132,3.45,0.541532507156701,0.0,0.8406798104466277,-0.541532507156701,0.0,-0.8406798104466277,1e-05,1.0,1.0, 1.0
689,0.0228,0.132,3.45,0.132,3.45,0.4711007660571949,0.0,0.8820794001791019,-0.47110076605719503,0.0,-0.8820794001791018,1e-05,1.0,1.0, 1.0
690,0.0228,0.132,3.45,0.132,3.45,0.41099147964848337,0.0,0.911639185015843,-0.4109914796484832,0.0,-0.911639185015843,1e-05,1.0,1.0, 1.0
691,0.0228,0.132,3.45,0.132,3.45,0.3601094764791813,0.0,0.9329100519074119,-0.3601094764791813,0.0,-0.9329100519074119,1e-05,1.0,1.0, 1.0
692,0.0228,0.132,3.45,0.132,3.45,0.31848023634503253,0.0,0.9479295011010114,-0.31848023634503253,0.0,-0.9479295011010114,1e-05,1.0,1.0, 1.0
693,0.0228,0.132,3.45,0.132,3.45,0.28741924812500413,0.0,0.957804873555808,-0.28741924812500425,0.0,-0.957804873555808,1e-05,1.0,1.0, 1.0
694,0.0228,0.132,3.45,0.132,3.45,0.981333654834068,0.0,0.19231291659691055,-0.981333654834068,0.0,-0.1923129165969105,1e-05,1.0,1.0, 1.0
695,0.0228,0.132,3.45,0.132,3.45,0.8635684501179604,0.0,0.5042316253081157,-0.8635684501179604,0.0,-0.5042316253081157,1e-05,1.0,1.0, 1.0
696,0.0228,0.132,3.45,0.132,3.45,0.7179127954061635,0.0,0.6961330463295848,-0.7179127954061634,0.0,-0.696133046329585,1e-05,1.0,1.0, 1.0
697,0.0228,0.132,3.45,0.132,3.45,0.5928983252280795,0.0,0.8052773285904293,-0.5928983252280794,0.0,-0.8052773285904296,1e-05,1.0,1.0, 1.0
698,0.0228,0.132,3.45,0.132,3.45,0.494770127974286,0.0,0.8690238894669747,-0.494770127974286,0.0,-0.8690238894669747,1e-05,1.0,1.0, 1.0
699,0.0228,0.132,3.45,0.132,3.45,0.4178853837369276,0.0,0.9084997556736275,-0.4178853837369276,0.0,-0.9084997556736275,1e-05,1.0,1.0, 1.0
700,0.0228,0.132,3.45,0.132,3.45,0.3562808126346614,0.0,0.934378928780174,-0.3562808126346614,0.0,-0.934378928780174,1e-05,1.0,1.0, 1.0
701,0.0228,0.132,3.45,0.132,3.45,0.3059259796340233,0.0,0.952055300381739,-0.3059259796340233,0.0,-0.952055300381739,1e-05,1.0,1.0, 1.0
702,0.0228,0.132,3.45,0.132,3.45,0.2645984580401778,0.0,0.9643586760136295,-0.2645984580401778,0.0,-0.9643586760136295,1e-05,1.0,1.0, 1.0
703,0.0228,0.132,3.45,0.132,3.45,0.2315891598610084,0.0,0.9728136825902852,-0.2315891598610084,0.0,-0.9728136825902852,1e-05,1.0,1.0, 1.0
704,0.0228,0.132,3.45,0.132,3.45,0.20739113055717093,0.0,0.9782581044725459,-0.20739113055717093,0.0,-0.9782581044725459,1e-05,1.0,1.0, 1.0
705,0.0228,0.132,3.45,0.132,3.45,0.9498786126790332,0.0,0.312618971233282,-0.949878612679033,0.0,-0.3126189712332821,1e-05,1.0,1.0, 1.0
706,0.0228,0.132,3.45,0.132,3.45,0.7140101614195941,0.0,0.7001353364811442,-0.7140101614195941,0.0,-0.7001353364811442,1e-05,1.0,1.0, 1.0
707,0.0228,0.132,3.45,0.132,3.45,0.5239122594507627,0.0,0.8517722373951834,-0.5239122594507628,0.0,-0.8517722373951833,1e-05,1.0,1.0, 1.0
708,0.0228,0.132,3.45,0.132,3.45,0.4029715916131335,0.0,0.9152124869956582,-0.4029715916131335,0.0,-0.9152124869956582,1e-05,1.0,1.0, 1.0
709,0.0228,0.132,3.45,0.132,3.45,0.32315755354055353,0.0,0.9463451778234432,-0.32315755354055353,0.0,-0.9463451778234432,1e-05,1.0,1.0, 1.0
710,0.0228,0.132,3.45,0.132,3.45,0.26647637539626373,0.0,0.9638414503203675,-0.26647637539626357,0.0,-0.9638414503203675,1e-05,1.0,1.0, 1.0
711,0.0228,0.132,3.45,0.132,3.45,0.22351406623859915,0.0,0.9747007039052998,-0.22351406623859915,0.0,-0.9747007039052998,1e-05,1.0,1.0, 1.0
712,0.0228,0.132,3.45,0.132,3.45,0.18954861136361312,0.0,0.9818713377679003,-0.18954861136361312,0.0,-0.9818713377679003,1e-05,1.0,1.0, 1.0
713,0.0228,0.132,3.45,0.132,3.45,0.16227621972027018,0.0,0.9867453716705736,-0.16227621972027018,0.0,-0.9867453716705736,1e-05,1.0,1.0, 1.0
714,0.0228,0.132,3.45,0.132,3.45,0.14085366176776534,0.0,0.9900304267882942,-0.14085366176776534,0.0,-0.9900304267882942,1e-05,1.0,1.0, 1.0
715,0.0228,0.132,3.45,0.132,3.45,0.12535135784603618,0.0,0.9921124115170392,-0.12535135784603618,0.0,-0.9921124115170392,1e-05,1.0,1.0, 1.0
716,0.0228,0.132,3.45,0.132,3.45,0.7093321978815639,0.0,0.704874338480633,-0.7093321978815639,0.0,-0.704874338480633,1e-05,1.0,1.0, 1.0
717,0.0228,0.132,3.45,0.132,3.45,0.32011593691709295,0.0,0.9473783757990742,-0.32011593691709284,0.0,-0.9473783757990742,1e-05,1.0,1.0, 1.0
718,0.0228,0.132,3.45,0.132,3.45,0.2000316525823823,0.0,0.9797894355243687,-0.2000316525823823,0.0,-0.9797894355243687,1e-05,1.0,1.0, 1.0
719,0.0228,0.132,3.45,0.132,3.45,0.14501813483702264,0.0,0.989428997234461,-0.14501813483702264,0.0,-0.989428997234461,1e-05,1.0,1.0, 1.0
720,0.0228,0.132,3.45,0.132,3.45,0.11329202246938123,0.0,0.9935617331825926,-0.11329202246938123,0.0,-0.9935617331825926,1e-05,1.0,1.0, 1.0
721,0.0228,0.132,3.45,0.132,3.45,0.09215418891139568,0.0,0.9957447491531566,-0.09215418891139568,0.0,-0.9957447491531566,1e-05,1.0,1.0, 1.0
722,0.0228,0.132,3.45,0.132,3.45,0.0766235921134508,0.0,0.99706009103345,-0.0766235921134508,0.0,-0.99706009103345,1e-05,1.0,1.0, 1.0
723,0.0228,0.132,3.45,0.132,3.45,0.06452871196905464,0.0,0.9979158508269195,-0.06452871196905464,0.0,-0.9979158508269195,1e-05,1.0,1.0, 1.0
724,0.0228,0.132,3.45,0.132,3.45,0.05491447170150927,0.0,0.9984910619518554,-0.05491447170150927,0.0,-0.9984910619518554,1e-05,1.0,1.0, 1.0
725,0.0228,0.132,3.45,0.132,3.45,0.047413722117140664,0.0,0.9988753370441172,-0.047413722117140684,0.0,-0.9988753370441172,1e-05,1.0,1.0, 1.0
726,0.0228,0.132,3.45,0.132,3.45,0.04202148943431334,0.0,0.9991167071096959,-0.04202148943431334,0.0,-0.9991167071096959,1e-05,1.0,1.0, 1.0
727,0.0228,0.132,3.45,0.132,3.45,0.731840545370428,0.0,0.6814759101772524,-0.731840545370428,0.0,-0.6814759101772524,1e-05,1.0,1.0, 1.0
728,0.0228,0.132,3.45,0.132,3.45,0.7317265711443409,0.0,0.6815982871760652,-0.7317265711443409,0.0,-0.6815982871760652,1e-05,1.0,1.0, 1.0
729,0.0228,0.132,3.45,0.132,3.45,0.7315840183357589,0.0,0.6817512919794901,-0.7315840183357588,0.0,-0.6817512919794902,1e-05,1.0,1.0, 1.0
730,0.0228,0.132,3.45,0.132,3.45,0.7314063708578901,0.0,0.6819418748460094,-0.7314063708578901,0.0,-0.6819418748460094,1e-05,1.0,1.0, 1.0
731,0.0228,0.132,3.45,0.132,3.45,0.7311896490831976,0.0,0.6821742424583256,-0.7311896490831977,0.0,-0.6821742424583256,1e-05,1.0,1.0, 1.0
732,0.0228,0.132,3.45,0.132,3.45,0.7309262305375148,0.0,0.6824564788411197,-0.7309262305375148,0.0,-0.6824564788411197,1e-05,1.0,1.0, 1.0
733,0.0228,0.132,3.45,0.132,3.45,0.7306012879607537,0.0,0.682804333634525,-0.7306012879607537,0.0,-0.682804333634525,1e-05,1.0,1.0, 1.0
734,0.0228,0.132,3.45,0.132,3.45,0.7301748386871391,0.0,0.6832603493165766,-0.7301748386871391,0.0,-0.6832603493165766,1e-05,1.0,1.0, 1.0
735,0.0228,0.132,3.45,0.132,3.45,0.7294839299113294,0.0,0.6839979502901472,-0.7294839299113293,0.0,-0.6839979502901473,1e-05,1.0,1.0, 1.0
736,0.0228,0.132,3.45,0.132,3.45,0.7279278600828561,0.0,0.6856537249335073,-0.727927860082856,0.0,-0.6856537249335074,1e-05,1.0,1.0, 1.0
737,0.0228,0.132,3.45,0.132,3.45,0.7239266064641539,0.0,0.6898769951616694,-0.7239266064641537,0.0,-0.6898769951616696,1e-05,1.0,1.0, 1.0
738,0.0228,0.132,3.45,0.132,3.45,0.7785126906746731,0.0,0.6276288636276065,-0.7785126906746731,0.0,-0.6276288636276065,1e-05,1.0,1.0, 1.0
739,0.0228,0.132,3.45,0.132,3.45,0.778238118498035,0.0,0.6279692913802698,-0.7782381184980351,0.0,-0.6279692913802697,1e-05,1.0,1.0, 1.0
740,0.0228,0.132,3.45,0.132,3.45,0.7778892655290761,0.0,0.6284013769674878,-0.7778892655290761,0.0,-0.6284013769674877,1e-05,1.0,1.0, 1.0
741,0.0228,0.132,3.45,0.132,3.45,0.7774465454624229,0.0,0.6289490193557381,-0.7774465454624229,0.0,-0.6289490193557383,1e-05,1.0,1.0, 1.0
742,0.0228,0.132,3.45,0.132,3.45,0.7768964748515268,0.0,0.6296283565431842,-0.7768964748515269,0.0,-0.629628356543184,1e-05,1.0,1.0, 1.0
743,0.0228,0.132,3.45,0.132,3.45,0.7762211554414054,0.0,0.6304607187170423,-0.7762211554414054,0.0,-0.6304607187170423,1e-05,1.0,1.0, 1.0
744,0.0228,0.132,3.45,0.132,3.45,0.7753901178733895,0.0,0.631482513696374,-0.7753901178733896,0.0,-0.6314825136963739,1e-05,1.0,1.0, 1.0
745,0.0228,0.132,3.45,0.132,3.45,0.7743009430249627,0.0,0.632817548453465,-0.7743009430249627,0.0,-0.632817548453465,1e-05,1.0,1.0, 1.0
746,0.0228,0.132,3.45,0.132,3.45,0.7726045830752205,0.0,0.63488751618784,-0.7726045830752205,0.0,-0.63488751618784,1e-05,1.0,1.0, 1.0
747,0.0228,0.132,3.45,0.132,3.45,0.7689946573212494,0.0,0.6392552049153564,-0.7689946573212493,0.0,-0.6392552049153565,1e-05,1.0,1.0, 1.0
748,0.0228,0.132,3.45,0.132,3.45,0.7602296906305157,0.0,0.6496543831021462,-0.7602296906305158,0.0,-0.6496543831021461,1e-05,1.0,1.0, 1.0
749,0.0228,0.132,3.45,0.132,3.45,0.8212737766469269,0.0,0.5705342967711,-0.8212737766469269,0.0,-0.5705342967711,1e-05,1.0,1.0, 1.0
750,0.0228,0.132,3.45,0.132,3.45,0.8209506455656534,0.0,0.5709991572194628,-0.8209506455656534,0.0,-0.5709991572194628,1e-05,1.0,1.0, 1.0
751,0.0228,0.132,3.45,0.132,3.45,0.8205328687606578,0.0,0.5715993450690836,-0.8205328687606578,0.0,-0.5715993450690836,1e-05,1.0,1.0, 1.0
752,0.0228,0.132,3.45,0.132,3.45,0.8199846138649809,0.0,0.5723855632567072,-0.8199846138649809,0.0,-0.5723855632567073,1e-05,1.0,1.0, 1.0
753,0.0228,0.132,3.45,0.132,3.45,0.8192829484392328,0.0,0.5733894404300774,-0.8192829484392329,0.0,-0.5733894404300773,1e-05,1.0,1.0, 1.0
754,0.0228,0.132,3.45,0.132,3.45,0.818405925277968,0.0,0.5746405323938724,-0.8184059252779678,0.0,-0.5746405323938724,1e-05,1.0,1.0, 1.0
755,0.0228,0.132,3.45,0.132,3.45,0.8173097441189638,0.0,0.5761985614076054,-0.8173097441189636,0.0,-0.5761985614076054,1e-05,1.0,1.0, 1.0
756,0.0228,0.132,3.45,0.132,3.45,0.8158824964466431,0.0,0.5782177375279952,-0.815882496446643,0.0,-0.5782177375279953,1e-05,1.0,1.0, 1.0
757,0.0228,0.132,3.45,0.132,3.45,0.8137440802070633,0.0,0.5812233408320424,-0.8137440802070635,0.0,-0.5812233408320423,1e-05,1.0,1.0, 1.0
758,0.0228,0.132,3.45,0.132,3.45,0.809521475163628,0.0,0.5870902666957643,-0.8095214751636282,0.0,-0.5870902666957641,1e-05,1.0,1.0, 1.0
759,0.0228,0.132,3.45,0.132,3.45,0.7999857321726267,0.0,0.600019023298617,-0.7999857321726267,0.0,-0.600019023298617,1e-05,1.0,1.0, 1.0
760,0.0228,0.132,3.45,0.132,3.45,0.8598988765542485,0.0,0.5104644180555009,-0.8598988765542485,0.0,-0.510464418055501,1e-05,1.0,1.0, 1.0
761,0.0228,0.132,3.45,0.132,3.45,0.8596316218413873,0.0,0.5109143516582269,-0.8596316218413873,0.0,-0.5109143516582269,1e-05,1.0,1.0, 1.0
762,0.0228,0.132,3.45,0.132,3.45,0.8592579818743081,0.0,0.5115424914758221,-0.8592579818743079,0.0,-0.5115424914758221,1e-05,1.0,1.0, 1.0
763,0.0228,0.132,3.45,0.132,3.45,0.8587350512078566,0.0,0.5124198589311696,-0.8587350512078566,0.0,-0.5124198589311696,1e-05,1.0,1.0, 1.0
764,0.0228,0.132,3.45,0.132,3.45,0.8580422480760945,0.0,0.513579108333392,-0.8580422480760943,0.0,-0.5135791083333922,1e-05,1.0,1.0, 1.0
765,0.0228,0.132,3.45,0.132,3.45,0.8571536840598282,0.0,0.5150607361298902,-0.8571536840598282,0.0,-0.5150607361298901,1e-05,1.0,1.0, 1.0
766,0.0228,0.132,3.45,0.132,3.45,0.8560208365888274,0.0,0.5169413190351144,-0.8560208365888274,0.0,-0.5169413190351144,1e-05,1.0,1.0, 1.0
767,0.0228,0.132,3.45,0.132,3.45,0.8545452786364607,0.0,0.5193769024130107,-0.8545452786364607,0.0,-0.5193769024130106,1e-05,1.0,1.0, 1.0
768,0.0228,0.132,3.45,0.132,3.45,0.8523767465019836,0.0,0.5229281805589495,-0.8523767465019835,0.0,-0.5229281805589496,1e-05,1.0,1.0, 1.0
769,0.0228,0.132,3.45,0.132,3.45,0.8482986784613339,0.0,0.5295180375782818,-0.8482986784613339,0.0,-0.5295180375782816,1e-05,1.0,1.0, 1.0
770,0.0228,0.132,3.45,0.132,3.45,0.8394535392963652,0.0,0.543431463353757,-0.8394535392963652,0.0,-0.5434314633537572,1e-05,1.0,1.0, 1.0
771,0.0228,0.132,3.45,0.132,3.45,0.8941656171464414,0.0,0.4477363611692977,-0.8941656171464414,0.0,-0.4477363611692977,1e-05,1.0,1.0, 1.0
772,0.0228,0.132,3.45,0.132,3.45,0.8940061427675031,0.0,0.4480547027919368,-0.8940061427675031,0.0,-0.4480547027919367,1e-05,1.0,1.0, 1.0
773,0.0228,0.132,3.45,0.132,3.45,0.893741558362734,0.0,0.44858224090500015,-0.893741558362734,0.0,-0.44858224090500015,1e-05,1.0,1.0, 1.0
774,0.0228,0.132,3.45,0.132,3.45,0.8933322154605313,0.0,0.4493968767363417,-0.8933322154605313,0.0,-0.4493968767363417,1e-05,1.0,1.0, 1.0
775,0.0228,0.132,3.45,0.132,3.45,0.8927554224553874,0.0,0.4505416247989779,-0.8927554224553874,0.0,-0.4505416247989779,1e-05,1.0,1.0, 1.0
776,0.0228,0.132,3.45,0.132,3.45,0.8919854893338311,0.0,0.45206402955542235,-0.8919854893338311,0.0,-0.45206402955542235,1e-05,1.0,1.0, 1.0
777,0.0228,0.132,3.45,0.132,3.45,0.8909807253838739,0.0,0.4540411291881234,-0.8909807253838739,0.0,-0.4540411291881235,1e-05,1.0,1.0, 1.0
778,0.0228,0.132,3.45,0.132,3.45,0.8896540671848011,0.0,0.4566351286766507,-0.8896540671848011,0.0,-0.4566351286766507,1e-05,1.0,1.0, 1.0
779,0.0228,0.132,3.45,0.132,3.45,0.8877161570614392,0.0,0.46039116465465546,-0.8877161570614392,0.0,-0.46039116465465546,1e-05,1.0,1.0, 1.0
780,0.0228,0.132,3.45,0.132,3.45,0.8841515928171138,0.0,0.4672001294081165,-0.8841515928171136,0.0,-0.4672001294081166,1e-05,1.0,1.0, 1.0
781,0.0228,0.132,3.45,0.132,3.45,0.8765758501675043,0.0,0.4812637311320239,-0.8765758501675043,0.0,-0.4812637311320239,1e-05,1.0,1.0, 1.0
782,0.0228,0.132,3.45,0.132,3.45,0.9238756956375518,0.0,0.3826926952663583,-0.9238756956375518,0.0,-0.3826926952663582,1e-05,1.0,1.0, 1.0
783,0.0228,0.132,3.45,0.132,3.45,0.9238303498868045,0.0,0.3828021481496994,-0.9238303498868045,0.0,-0.38280214814969926,1e-05,1.0,1.0, 1.0
784,0.0228,0.132,3.45,0.132,3.45,0.9236909748160365,0.0,0.3831383340823523,-0.9236909748160365,0.0,-0.3831383340823522,1e-05,1.0,1.0, 1.0
785,0.0228,0.132,3.45,0.132,3.45,0.9234250783272985,0.0,0.38377874448205523,-0.9234250783272985,0.0,-0.38377874448205523,1e-05,1.0,1.0, 1.0
786,0.0228,0.132,3.45,0.132,3.45,0.9230100443659363,0.0,0.38477585423151556,-0.9230100443659363,0.0,-0.38477585423151567,1e-05,1.0,1.0, 1.0
787,0.0228,0.132,3.45,0.132,3.45,0.9224231063267385,0.0,0.3861808033998198,-0.9224231063267387,0.0,-0.38618080339981975,1e-05,1.0,1.0, 1.0
788,0.0228,0.132,3.45,0.132,3.45,0.9216327512863749,0.0,0.38806323164699197,-0.9216327512863749,0.0,-0.38806323164699197,1e-05,1.0,1.0, 1.0
789,0.0228,0.132,3.45,0.132,3.45,0.9205678699761778,0.0,0.39058263756537254,-0.9205678699761776,0.0,-0.3905826375653726,1e-05,1.0,1.0, 1.0
790,0.0228,0.132,3.45,0.132,3.45,0.9190031783446415,0.0,0.39425012136009197,-0.9190031783446415,0.0,-0.39425012136009185,1e-05,1.0,1.0, 1.0
791,0.0228,0.132,3.45,0.132,3.45,0.9161438361270492,0.0,0.40084968694813056,-0.9161438361270492,0.0,-0.40084968694813056,1e-05,1.0,1.0, 1.0
792,0.0228,0.132,3.45,0.132,3.45,0.9101094297039636,0.0,0.414367983758309,-0.9101094297039636,0.0,-0.414367983758309,1e-05,1.0,1.0, 1.0
793,0.0228,0.132,3.45,0.132,3.45,0.9488618555354514,0.0,0.3156915885952938,-0.9488618555354514,0.0,-0.31569158859529384,1e-05,1.0,1.0, 1.0
794,0.0228,0.132,3.45,0.132,3.45,0.9489020202845011,0.0,0.3155708413335934,-0.9489020202845013,0.0,-0.31557084133359337,1e-05,1.0,1.0, 1.0
795,0.0228,0.132,3.45,0.132,3.45,0.9488662056571268,0.0,0.31567851330403757,-0.9488662056571268,0.0,-0.3156785133040374,1e-05,1.0,1.0, 1.0
796,0.0228,0.132,3.45,0.132,3.45,0.9487286750142933,0.0,0.31609160255473995,-0.9487286750142933,0.0,-0.31609160255473995,1e-05,1.0,1.0, 1.0
797,0.0228,0.132,3.45,0.132,3.45,0.9484724868111264,0.0,0.3168594984568358,-0.9484724868111264,0.0,-0.3168594984568358,1e-05,1.0,1.0, 1.0
798,0.0228,0.132,3.45,0.132,3.45,0.9480788941359122,0.0,0.31803523467381073,-0.9480788941359122,0.0,-0.31803523467381084,1e-05,1.0,1.0, 1.0
799,0.0228,0.132,3.45,0.132,3.45,0.9475252720563984,0.0,0.31968087026665865,-0.9475252720563984,0.0,-0.31968087026665865,1e-05,1.0,1.0, 1.0
800,0.0228,0.132,3.45,0.132,3.45,0.9467609152180932,0.0,0.3219375240872031,-0.9467609152180932,0.0,-0.3219375240872032,1e-05,1.0,1.0, 1.0
801,0.0228,0.132,3.45,0.132,3.45,0.9456242057092226,0.0,0.32526122052406076,-0.9456242057092226,0.0,-0.32526122052406076,1e-05,1.0,1.0, 1.0
802,0.0228,0.132,3.45,0.132,3.45,0.9435390101735462,0.0,0.3312614319245822,-0.9435390101735462,0.0,-0.3312614319245822,1e-05,1.0,1.0, 1.0
803,0.0228,0.132,3.45,0.132,3.45,0.9391347908786587,0.0,0.3435488969001327,-0.9391347908786587,0.0,-0.3435488969001327,1e-05,1.0,1.0, 1.0
804,0.0228,0.132,3.45,0.132,3.45,0.9689877611922334,0.0,0.24710871829958428,-0.9689877611922334,0.0,-0.24710871829958428,1e-05,1.0,1.0, 1.0
805,0.0228,0.132,3.45,0.132,3.45,0.969066667486982,0.0,0.24679909636316513,-0.969066667486982,0.0,-0.24679909636316513,1e-05,1.0,1.0, 1.0
806,0.0228,0.132,3.45,0.132,3.45,0.9690916474565708,0.0,0.2467009907355656,-0.9690916474565708,0.0,-0.2467009907355656,1e-05,1.0,1.0, 1.0
807,0.0228,0.132,3.45,0.132,3.45,0.9690435657720904,0.0,0.24688978843952294,-0.9690435657720904,0.0,-0.24688978843952294,1e-05,1.0,1.0, 1.0
808,0.0228,0.132,3.45,0.132,3.45,0.9689120308635905,0.0,0.24740548993058548,-0.9689120308635905,0.0,-0.24740548993058548,1e-05,1.0,1.0, 1.0
809,0.0228,0.132,3.45,0.132,3.45,0.9686849780510308,0.0,0.24829299889097517,-0.9686849780510308,0.0,-0.2482929988909751,1e-05,1.0,1.0, 1.0
810,0.0228,0.132,3.45,0.132,3.45,0.9683465162403401,0.0,0.24960974437148203,-0.9683465162403401,0.0,-0.24960974437148203,1e-05,1.0,1.0, 1.0
811,0.0228,0.132,3.45,0.132,3.45,0.9678649128873709,0.0,0.2514706949159721,-0.9678649128873709,0.0,-0.251470694915972,1e-05,1.0,1.0, 1.0
812,0.0228,0.132,3.45,0.132,3.45,0.9671374781497872,0.0,0.25425400362249945,-0.9671374781497872,0.0,-0.25425400362249945,1e-05,1.0,1.0, 1.0
813,0.0228,0.132,3.45,0.132,3.45,0.965793618994448,0.0,0.2593119463302971,-0.965793618994448,0.0,-0.2593119463302971,1e-05,1.0,1.0, 1.0
814,0.0228,0.132,3.45,0.132,3.45,0.9629415447297032,0.0,0.26971018044110406,-0.9629415447297032,0.0,-0.2697101804411042,1e-05,1.0,1.0, 1.0
815,0.0228,0.132,3.45,0.132,3.45,0.984154414533847,0.0,0.17731353121953408,-0.984154414533847,0.0,-0.17731353121953408,1e-05,1.0,1.0, 1.0
816,0.0228,0.132,3.45,0.132,3.45,0.9842268099063022,0.0,0.1769112395006706,-0.9842268099063022,0.0,-0.1769112395006706,1e-05,1.0,1.0, 1.0
817,0.0228,0.132,3.45,0.132,3.45,0.9842656250916628,0.0,0.17669515913832615,-0.9842656250916628,0.0,-0.17669515913832606,1e-05,1.0,1.0, 1.0
818,0.0228,0.132,3.45,0.132,3.45,0.9842612611031861,0.0,0.1767194666457708,-0.9842612611031861,0.0,-0.1767194666457708,1e-05,1.0,1.0, 1.0
819,0.0228,0.132,3.45,0.132,3.45,0.984208187750467,0.0,0.17701481058075738,-0.984208187750467,0.0,-0.17701481058075738,1e-05,1.0,1.0, 1.0
820,0.0228,0.132,3.45,0.132,3.45,0.9841000903910103,0.0,0.17761478568071262,-0.9841000903910103,0.0,-0.17761478568071254,1e-05,1.0,1.0, 1.0
821,0.0228,0.132,3.45,0.132,3.45,0.9839281058992636,0.0,0.1785650649524912,-0.9839281058992636,0.0,-0.1785650649524912,1e-05,1.0,1.0, 1.0
822,0.0228,0.132,3.45,0.132,3.45,0.9836760299663967,0.0,0.1799485150523574,-0.9836760299663967,0.0,-0.1799485150523574,1e-05,1.0,1.0, 1.0
823,0.0228,0.132,3.45,0.132,3.45,0.9832894022636913,0.0,0.18204931034176633,-0.9832894022636913,0.0,-0.18204931034176644,1e-05,1.0,1.0, 1.0
824,0.0228,0.132,3.45,0.132,3.45,0.9825699126320246,0.0,0.18589342858287244,-0.9825699126320246,0.0,-0.18589342858287244,1e-05,1.0,1.0, 1.0
825,0.0228,0.132,3.45,0.132,3.45,0.9810376319401654,0.0,0.19381734885513438,-0.9810376319401654,0.0,-0.19381734885513438,1e-05,1.0,1.0, 1.0
826,0.0228,0.132,3.45,0.132,3.45,0.9942930588993509,0.0,0.106683236848963,-0.9942930588993509,0.0,-0.106683236848963,1e-05,1.0,1.0, 1.0
827,0.0228,0.132,3.45,0.132,3.45,0.9943316869600809,0.0,0.106322604873657,-0.9943316869600809,0.0,-0.106322604873657,1e-05,1.0,1.0, 1.0
828,0.0228,0.132,3.45,0.132,3.45,0.9943546366662336,0.0,0.10610775909594342,-0.9943546366662336,0.0,-0.10610775909594342,1e-05,1.0,1.0, 1.0
829,0.0228,0.132,3.45,0.132,3.45,0.9943591645246049,0.0,0.10606531914782245,-0.9943591645246049,0.0,-0.10606531914782245,1e-05,1.0,1.0, 1.0
830,0.0228,0.132,3.45,0.132,3.45,0.9943436016218811,0.0,0.10621111953851922,-0.9943436016218811,0.0,-0.10621111953851922,1e-05,1.0,1.0, 1.0
831,0.0228,0.132,3.45,0.132,3.45,0.9943060044585308,0.0,0.10656251450539245,-0.9943060044585308,0.0,-0.10656251450539245,1e-05,1.0,1.0, 1.0
832,0.0228,0.132,3.45,0.132,3.45,0.9942432269978888,0.0,0.1071466544919829,-0.9942432269978888,0.0,-0.1071466544919829,1e-05,1.0,1.0, 1.0
833,0.0228,0.132,3.45,0.132,3.45,0.9941493483728324,0.0,0.10801422651610562,-0.9941493483728324,0.0,-0.10801422651610562,1e-05,1.0,1.0, 1.0
834,0.0228,0.132,3.45,0.132,3.45,0.9940043498802296,0.0,0.10934053420018575,-0.9940043498802296,0.0,-0.10934053420018565,1e-05,1.0,1.0, 1.0
835,0.0228,0.132,3.45,0.132,3.45,0.9937346929152848,0.0,0.11176475337316553,-0.9937346929152848,0.0,-0.11176475337316553,1e-05,1.0,1.0, 1.0
836,0.0228,0.132,3.45,0.132,3.45,0.9931609734642919,0.0,0.11675307613703438,-0.9931609734642919,0.0,-0.11675307613703438,1e-05,1.0,1.0, 1.0
837,0.0228,0.132,3.45,0.132,3.45,0.9993665627696748,0.0,0.03558754301613923,-0.9993665627696748,0.0,-0.03558754301613923,1e-05,1.0,1.0, 1.0
838,0.0228,0.132,3.45,0.132,3.45,0.999372513921568,0.0,0.035420028487923014,-0.999372513921568,0.0,-0.035420028487923014,1e-05,1.0,1.0, 1.0
839,0.0228,0.132,3.45,0.132,3.45,0.9993757921608126,0.0,0.03532741206128997,-0.9993757921608126,0.0,-0.03532741206128997,1e-05,1.0,1.0, 1.0
840,0.0228,0.132,3.45,0.132,3.45,0.9993765322999798,0.0,0.035306468076934126,-0.9993765322999798,0.0,-0.035306468076934126,1e-05,1.0,1.0, 1.0
841,0.0228,0.132,3.45,0.132,3.45,0.9993747367103338,0.0,0.035357257036581394,-0.9993747367103338,0.0,-0.035357257036581394,1e-05,1.0,1.0, 1.0
842,0.0228,0.132,3.45,0.132,3.45,0.9993702399260849,0.0,0.03548413096131186,-0.9993702399260849,0.0,-0.03548413096131186,1e-05,1.0,1.0, 1.0
843,0.0228,0.132,3.45,0.132,3.45,0.9993627158941729,0.0,0.03569540699617671,-0.9993627158941729,0.0,-0.03569540699617671,1e-05,1.0,1.0, 1.0
844,0.0228,0.132,3.45,0.132,3.45,0.9993515542138649,0.0,0.03600654232681537,-0.9993515542138649,0.0,-0.03600654232681537,1e-05,1.0,1.0, 1.0
845,0.0228,0.132,3.45,0.132,3.45,0.999334480184135,0.0,0.036477345231042756,-0.999334480184135,0.0,-0.036477345231042756,1e-05,1.0,1.0, 1.0
846,0.0228,0.132,3.45,0.132,3.45,0.9993032493211195,0.0,0.03732312816810244,-0.9993032493211195,0.0,-0.03732312816810244,1e-05,1.0,1.0, 1.0
847,0.0228,0.132,3.45,0.132,3.45,0.9992375443715464,0.0,0.039042667920130385,-0.9992375443715464,0.0,-0.039042667920130385,1e-05,1.0,1.0, 1.0
848,0.0228,0.132,3.45,0.132,3.45,0.7318413771564809,0.0,0.6814750169167653,-0.7318413771564809,0.0,-0.6814750169167653,1e-05,1.0,1.0, 1.0
849,0.0228,0.132,3.45,0.132,3.45,0.7317267179350012,0.0,0.681598129589622,-0.7317267179350011,0.0,-0.6815981295896221,1e-05,1.0,1.0, 1.0
850,0.0228,0.132,3.45,0.132,3.45,0.7315893031426295,0.0,0.6817456208346935,-0.7315893031426295,0.0,-0.6817456208346936,1e-05,1.0,1.0, 1.0
851,0.0228,0.132,3.45,0.132,3.45,0.731421037954232,0.0,0.6819261435360534,-0.731421037954232,0.0,-0.6819261435360534,1e-05,1.0,1.0, 1.0
852,0.0228,0.132,3.45,0.132,3.45,0.7312234230568371,0.0,0.6821380399692146,-0.7312234230568371,0.0,-0.6821380399692146,1e-05,1.0,1.0, 1.0
853,0.0228,0.132,3.45,0.132,3.45,0.7309842644993445,0.0,0.6823943178649367,-0.7309842644993445,0.0,-0.6823943178649367,1e-05,1.0,1.0, 1.0
854,0.0228,0.132,3.45,0.132,3.45,0.7306853091309861,0.0,0.6827144198126734,-0.7306853091309862,0.0,-0.6827144198126733,1e-05,1.0,1.0, 1.0
855,0.0228,0.132,3.45,0.132,3.45,0.7302441985899689,0.0,0.6831862194348582,-0.7302441985899688,0.0,-0.6831862194348582,1e-05,1.0,1.0, 1.0
856,0.0228,0.132,3.45,0.132,3.45,0.7294236582059618,0.0,0.6840622243987984,-0.729423658205962,0.0,-0.6840622243987984,1e-05,1.0,1.0, 1.0
857,0.0228,0.132,3.45,0.132,3.45,0.7276107957268595,0.0,0.685990182103014,-0.7276107957268595,0.0,-0.685990182103014,1e-05,1.0,1.0, 1.0
858,0.0228,0.132,3.45,0.132,3.45,0.7234253073727474,0.0,0.6904026540017397,-0.7234253073727474,0.0,-0.6904026540017397,1e-05,1.0,1.0, 1.0
859,0.0228,0.132,3.45,0.132,3.45,0.7785048876831012,0.0,0.6276385423581968,-0.7785048876831012,0.0,-0.6276385423581967,1e-05,1.0,1.0, 1.0
860,0.0228,0.132,3.45,0.132,3.45,0.7782221715607609,0.0,0.6279890537989128,-0.7782221715607609,0.0,-0.6279890537989128,1e-05,1.0,1.0, 1.0
861,0.0228,0.132,3.45,0.132,3.45,0.7778797832865675,0.0,0.6284131147215524,-0.7778797832865675,0.0,-0.6284131147215524,1e-05,1.0,1.0, 1.0
862,0.0228,0.132,3.45,0.132,3.45,0.7774581117556272,0.0,0.6289347219428854,-0.7774581117556272,0.0,-0.6289347219428854,1e-05,1.0,1.0, 1.0
863,0.0228,0.132,3.45,0.132,3.45,0.7769517765863522,0.0,0.6295601137773191,-0.7769517765863522,0.0,-0.6295601137773191,1e-05,1.0,1.0, 1.0
864,0.0228,0.132,3.45,0.132,3.45,0.7763394469139838,0.0,0.6303150507208991,-0.7763394469139838,0.0,-0.6303150507208991,1e-05,1.0,1.0, 1.0
865,0.0228,0.132,3.45,0.132,3.45,0.7755715542727603,0.0,0.6312596646412115,-0.7755715542727603,0.0,-0.6312596646412115,1e-05,1.0,1.0, 1.0
866,0.0228,0.132,3.45,0.132,3.45,0.774452927537375,0.0,0.6326315381237244,-0.774452927537375,0.0,-0.6326315381237244,1e-05,1.0,1.0, 1.0
867,0.0228,0.132,3.45,0.132,3.45,0.7724396065781328,0.0,0.6350882255162815,-0.772439606578133,0.0,-0.6350882255162815,1e-05,1.0,1.0, 1.0
