e_no,c,k1,k2,k3,k4,ax,ay,az,bx,by,bz,pvol,m_g,m_c
1,0.0228,0.132,3.45,0.132,3.45,0.03929871438965813,0.0,0.9992275071510592,-0.0,1.0,0.0,0.2,1.0,1.0, 1.0
2,0.0228,0.132,3.45,0.132,3.45,0.11744749472057466,0.0,0.9930790935186687,-0.0,1.0,0.0,0.2,1.0,1.0, 1.0
3,0.0228,0.132,3.45,0.132,3.45,0.19478793433456368,0.0,0.9808453805965922,-0.0,1.0,0.0,0.2,1.0,1.0, 1.0
4,0.0228,0.132,3.45,0.132,3.45,0.27080407551221974,0.0,0.9626344855062964,-0.0,1.0,0.0,0.2,1.0,1.0, 1.0
5,0.0228,0.132,3.45,0.132,3.45,0.3446533112960134,0.0,0.9387300437360536,-0.0,1.0,0.0,0.2,1.0,1.0, 1.0
6,0.0228,0.132,3.45,0.132,3.45,0.41540506482783957,0.0,0.9096365384676334,-0.0,1.0,0.0,0.2,1.0,1.0, 1.0
7,0.0228,0.132,3.45,0.132,3.45,0.4821994863950429,0.0,0.8760614449457053,-0.0,1.0,0.0,0.2,1.0,1.0, 1.0
8,0.0228,0.132,3.45,0.132,3.45,0.5442528424763231,0.0,0.8389212379338377,-0.0,1.0,0.0,0.2,1.0,1.0, 1.0
9,0.0228,0.132,3.45,0.132,3.45,0.6007011770734907,0.0,0.7994736367526591,-0.0,1.0,0.0,0.2,1.0,1.0, 1.0
10,0.0228,0.132,3.45,0.132,3.45,0.6501115420983451,0.0,0.7598387873953999,-0.0,1.0,0.0,0.2,1.0,1.0, 1.0
11,0.0228,0.132,3.45,0.132,3.45,0.690041560634817,0.0,0.7237697455659956,-0.0,1.0,0.0,0.2,1.0,1.0, 1.0
12,0.0228,0.132,3.45,0.132,3.45,0.03744159220896807,0.0,0.9992988177581605,-0.0,1.0,0.0,0.2,1.0,1.0, 1.0
13,0.0228,0.132,3.45,0.132,3.45,0.11208129887336997,0.0,0.9936990401740653,-0.0,1.0,0.0,0.2,1.0,1.0, 1.0
14,0.0228,0.132,3.45,0.132,3.45,0.18632614072165543,0.0,0.9824879486710123,-0.0,1.0,0.0,0.2,1.0,1.0, 1.0
15,0.0228,0.132,3.45,0.132,3.45,0.25979366658641656,0.0,0.9656641501068505,-0.0,1.0,0.0,0.2,1.0,1.0, 1.0
16,0.0228,0.132,3.45,0.132,3.45,0.3317455382032384,0.0,0.9433689086896195,-0.0,1.0,0.0,0.2,1.0,1.0, 1.0
17,0.0228,0.132,3.45,0.132,3.45,0.4013043587375468,0.0,0.9159447645236289,-0.0,1.0,0.0,0.2,1.0,1.0, 1.0
18,0.0228,0.132,3.45,0.132,3.45,0.46761192247668176,0.0,0.8839338719370707,-0.0,1.0,0.0,0.2,1.0,1.0, 1.0
19,0.0228,0.132,3.45,0.132,3.45,0.5298767942870976,0.0,0.8480746328454996,-0.0,1.0,0.0,0.2,1.0,1.0, 1.0
20,0.0228,0.132,3.45,0.132,3.45,0.5873963555951375,0.0,0.8092994016021208,-0.0,1.0,0.0,0.2,1.0,1.0, 1.0
21,0.0228,0.132,3.45,0.132,3.45,0.6394730104410123,0.0,0.7688135462630122,-0.0,1.0,0.0,0.2,1.0,1.0, 1.0
22,0.0228,0.132,3.45,0.132,3.45,0.6857344590130626,0.0,0.72785180615429,-0.0,1.0,0.0,0.2,1.0,1.0, 1.0
23,0.0228,0.132,3.45,0.132,3.45,0.036532713354685026,0.0,0.9993324576210585,-0.0,1.0,0.0,0.2,1.0,1.0, 1.0
24,0.0228,0.132,3.45,0.132,3.45,0.10947935141708146,0.0,0.9939890701679245,-0.0,1.0,0.0,0.2,1.0,1.0, 1.0
25,0.0228,0.132,3.45,0.132,3.45,0.18222258111114945,0.0,0.983257306575034,-0.0,1.0,0.0,0.2,1.0,1.0, 1.0
26,0.0228,0.132,3.45,0.132,3.45,0.2544253811686034,0.0,0.967092407899685,-0.0,1.0,0.0,0.2,1.0,1.0, 1.0
27,0.0228,0.132,3.45,0.132,3.45,0.3254125468838918,0.0,0.94557214126186,-0.0,1.0,0.0,0.2,1.0,1.0, 1.0
28,0.0228,0.132,3.45,0.132,3.45,0.3943712122998946,0.0,0.9189512211804887,-0.0,1.0,0.0,0.2,1.0,1.0, 1.0
29,0.0228,0.132,3.45,0.132,3.45,0.460481869008285,0.0,0.8876691096994628,-0.0,1.0,0.0,0.2,1.0,1.0, 1.0
30,0.0228,0.132,3.45,0.132,3.45,0.5229826523355917,0.0,0.8523433259878496,-0.0,1.0,0.0,0.2,1.0,1.0, 1.0
31,0.0228,0.132,3.45,0.132,3.45,0.5812504452958267,0.0,0.8137247199412116,-0.0,1.0,0.0,0.2,1.0,1.0, 1.0
32,0.0228,0.132,3.45,0.132,3.45,0.6349005605116547,0.0,0.7725938637227108,-0.0,1.0,0.0,0.2,1.0,1.0, 1.0
33,0.0228,0.132,3.45,0.132,3.45,0.6840074046593229,0.0,0.7294750649413709,-0.0,1.0,0.0,0.2,1.0,1.0, 1.0
34,0.0228,0.132,3.45,0.132,3.45,0.036041661280472155,0.0,0.9993502882634016,-0.0,1.0,0.0,0.2,1.0,1.0, 1.0
35,0.0228,0.132,3.45,0.132,3.45,0.10809794185246313,0.0,0.994140249143581,-0.0,1.0,0.0,0.2,1.0,1.0, 1.0
36,0.0228,0.132,3.45,0.132,3.45,0.1800440756301038,0.0,0.9836585438202129,-0.0,1.0,0.0,0.2,1.0,1.0, 1.0
37,0.0228,0.132,3.45,0.132,3.45,0.25155332621481524,0.0,0.9678434398549504,-0.0,1.0,0.0,0.2,1.0,1.0, 1.0
38,0.0228,0.132,3.45,0.132,3.45,0.3219975508344106,0.0,0.9467405015402273,-0.0,1.0,0.0,0.2,1.0,1.0, 1.0
39,0.0228,0.132,3.45,0.132,3.45,0.39061832307659844,0.0,0.9205527283522797,-0.0,1.0,0.0,0.2,1.0,1.0, 1.0
40,0.0228,0.132,3.45,0.132,3.45,0.45664533738163743,0.0,0.8896488272614146,-0.0,1.0,0.0,0.2,1.0,1.0, 1.0
41,0.0228,0.132,3.45,0.132,3.45,0.5193602971498344,0.0,0.8545553707890646,-0.0,1.0,0.0,0.2,1.0,1.0, 1.0
42,0.0228,0.132,3.45,0.132,3.45,0.5781802491664139,0.0,0.8159090632379712,-0.0,1.0,0.0,0.2,1.0,1.0, 1.0
43,0.0228,0.132,3.45,0.132,3.45,0.6327709323455435,0.0,0.7743390389090243,-0.0,1.0,0.0,0.2,1.0,1.0, 1.0
44,0.0228,0.132,3.45,0.132,3.45,0.6832398812328805,0.0,0.7301939911372042,-0.0,1.0,0.0,0.2,1.0,1.0, 1.0
45,0.0228,0.132,3.45,0.132,3.45,0.035724298495257906,0.0,0.9993616835245493,-0.0,1.0,0.0,0.2,1.0,1.0, 1.0
46,0.0228,0.132,3.45,0.132,3.45,0.1072147277332765,0.0,0.9942358885883568,-0.0,1.0,0.0,0.2,1.0,1.0, 1.0
47,0.0228,0.132,3.45,0.132,3.45,0.17864144966015708,0.0,0.9839142404007158,-0.0,1.0,0.0,0.2,1.0,1.0, 1.0
48,0.0228,0.132,3.45,0.132,3.45,0.24967591013404497,0.0,0.9683294583450079,-0.0,1.0,0.0,0.2,1.0,1.0, 1.0
49,0.0228,0.132,3.45,0.132,3.45,0.31972733513032614,0.0,0.9475095942366285,-0.0,1.0,0.0,0.2,1.0,1.0, 1.0
50,0.0228,0.132,3.45,0.132,3.45,0.3880909594137842,0.0,0.9216210757254244,-0.0,1.0,0.0,0.2,1.0,1.0, 1.0
51,0.0228,0.132,3.45,0.132,3.45,0.45404891814944337,0.0,0.8909767561094509,-0.0,1.0,0.0,0.2,1.0,1.0, 1.0
52,0.0228,0.132,3.45,0.132,3.45,0.5169266805906354,0.0,0.8560296764093798,-0.0,1.0,0.0,0.2,1.0,1.0, 1.0
53,0.0228,0.132,3.45,0.132,3.45,0.5761651772853973,0.0,0.8173332787080719,-0.0,1.0,0.0,0.2,1.0,1.0, 1.0
54,0.0228,0.132,3.45,0.132,3.45,0.6314372631571523,0.0,0.7754269679967322,-0.0,1.0,0.0,0.2,1.0,1.0, 1.0
55,0.0228,0.132,3.45,0.132,3.45,0.6827846180841999,0.0,0.7306197131939524,-0.0,1.0,0.0,0.2,1.0,1.0, 1.0
56,0.0228,0.132,3.45,0.132,3.45,0.035509581446131214,0.0,0.9993693359441846,-0.0,1.0,0.0,0.2,1.0,1.0, 1.0
57,0.0228,0.132,3.45,0.132,3.45,0.1066205750680159,0.0,0.994299780233389,-0.0,1.0,0.0,0.2,1.0,1.0, 1.0
58,0.0228,0.132,3.45,0.132,3.45,0.1776798033740046,0.0,0.9840883534891444,-0.0,1.0,0.0,0.2,1.0,1.0, 1.0
59,0.0228,0.132,3.45,0.132,3.45,0.24834927317122982,0.0,0.9686705521049569,-0.0,1.0,0.0,0.2,1.0,1.0, 1.0
60,0.0228,0.132,3.45,0.132,3.45,0.31807480910685193,0.0,0.9480656178828761,-0.0,1.0,0.0,0.2,1.0,1.0, 1.0
61,0.0228,0.132,3.45,0.132,3.45,0.3862046362526413,0.0,0.9224131281247926,-0.0,1.0,0.0,0.2,1.0,1.0, 1.0
62,0.0228,0.132,3.45,0.132,3.45,0.4520749378426777,0.0,0.8919799608592891,-0.0,1.0,0.0,0.2,1.0,1.0, 1.0
63,0.0228,0.132,3.45,0.132,3.45,0.5150536545483461,0.0,0.8571579393182991,-0.0,1.0,0.0,0.2,1.0,1.0, 1.0
64,0.0228,0.132,3.45,0.132,3.45,0.5746158452464319,0.0,0.8184232587064768,-0.0,1.0,0.0,0.2,1.0,1.0, 1.0
65,0.0228,0.132,3.45,0.132,3.45,0.6304235865031684,0.0,0.7762513134162686,-0.0,1.0,0.0,0.2,1.0,1.0, 1.0
66,0.0228,0.132,3.45,0.132,3.45,0.6824410460945584,0.0,0.7309406395907706,-0.0,1.0,0.0,0.2,1.0,1.0, 1.0
67,0.0228,0.132,3.45,0.132,3.45,0.03537802057258537,0.0,0.9993740018933681,-0.0,1.0,0.0,0.2,1.0,1.0, 1.0
68,0.0228,0.132,3.45,0.132,3.45,0.10625905162513649,0.0,0.9943384805727508,-0.0,1.0,0.0,0.2,1.0,1.0, 1.0
69,0.0228,0.132,3.45,0.132,3.45,0.1770701272068021,0.0,0.9841982371712352,-0.0,1.0,0.0,0.2,1.0,1.0, 1.0
70,0.0228,0.132,3.45,0.132,3.45,0.2474545045646285,0.0,0.9688995139696759,-0.0,1.0,0.0,0.2,1.0,1.0, 1.0
71,0.0228,0.132,3.45,0.132,3.45,0.316895734628761,0.0,0.9484603804978349,-0.0,1.0,0.0,0.2,1.0,1.0, 1.0
72,0.0228,0.132,3.45,0.132,3.45,0.38479760393100826,0.0,0.9230009772524377,-0.0,1.0,0.0,0.2,1.0,1.0, 1.0
73,0.0228,0.132,3.45,0.132,3.45,0.4505501792431869,0.0,0.892751105282952,-0.0,1.0,0.0,0.2,1.0,1.0, 1.0
74,0.0228,0.132,3.45,0.132,3.45,0.5135710706532429,0.0,0.8580470589589372,-0.0,1.0,0.0,0.2,1.0,1.0, 1.0
75,0.0228,0.132,3.45,0.132,3.45,0.5733735743819982,0.0,0.8192940523404348,-0.0,1.0,0.0,0.2,1.0,1.0, 1.0
76,0.0228,0.132,3.45,0.132,3.45,0.6296079995273922,0.0,0.7769129725594206,-0.0,1.0,0.0,0.2,1.0,1.0, 1.0
77,0.0228,0.132,3.45,0.132,3.45,0.682163579672837,0.0,0.7311995969418617,-0.0,1.0,0.0,0.2,1.0,1.0, 1.0
78,0.0228,0.132,3.45,0.132,3.45,0.035323123403739116,0.0,0.9993759437534026,-0.0,1.0,0.0,0.2,1.0,1.0, 1.0
79,0.0228,0.132,3.45,0.132,3.45,0.10610441843077756,0.0,0.9943549931435285,-0.0,1.0,0.0,0.2,1.0,1.0, 1.0
80,0.0228,0.132,3.45,0.132,3.45,0.17676554065759426,0.0,0.9842529876185433,-0.0,1.0,0.0,0.2,1.0,1.0, 1.0
81,0.0228,0.132,3.45,0.132,3.45,0.24693137104419519,0.0,0.9690329705403392,-0.0,1.0,0.0,0.2,1.0,1.0, 1.0
82,0.0228,0.132,3.45,0.132,3.45,0.3161225422194818,0.0,0.9487183661660039,-0.0,1.0,0.0,0.2,1.0,1.0, 1.0
83,0.0228,0.132,3.45,0.132,3.45,0.38379767658036484,0.0,0.9234172098523579,-0.0,1.0,0.0,0.2,1.0,1.0, 1.0
84,0.0228,0.132,3.45,0.132,3.45,0.44940320781008647,0.0,0.8933290305425007,-0.0,1.0,0.0,0.2,1.0,1.0, 1.0
85,0.0228,0.132,3.45,0.132,3.45,0.5124168245887483,0.0,0.8587368618374221,-0.0,1.0,0.0,0.2,1.0,1.0, 1.0
86,0.0228,0.132,3.45,0.132,3.45,0.5723775639884934,0.0,0.8199901976503123,-0.0,1.0,0.0,0.2,1.0,1.0, 1.0
87,0.0228,0.132,3.45,0.132,3.45,0.6289365441887166,0.0,0.7774566376229317,-0.0,1.0,0.0,0.2,1.0,1.0, 1.0
88,0.0228,0.132,3.45,0.132,3.45,0.6819341505610198,0.0,0.7314135726787003,-0.0,1.0,0.0,0.2,1.0,1.0, 1.0
89,0.0228,0.132,3.45,0.132,3.45,0.03534055149136083,0.0,0.9993753276023412,-0.0,1.0,0.0,0.2,1.0,1.0, 1.0
90,0.0228,0.132,3.45,0.132,3.45,0.10613818780572885,0.0,0.9943513891423473,-0.0,1.0,0.0,0.2,1.0,1.0, 1.0
91,0.0228,0.132,3.45,0.132,3.45,0.1767307813651033,0.0,0.9842592295315701,-0.0,1.0,0.0,0.2,1.0,1.0, 1.0
92,0.0228,0.132,3.45,0.132,3.45,0.24673372470635985,0.0,0.969083313803579,-0.0,1.0,0.0,0.2,1.0,1.0, 1.0
93,0.0228,0.132,3.45,0.132,3.45,0.3157049062698707,0.0,0.9488574245676388,-0.0,1.0,0.0,0.2,1.0,1.0, 1.0
94,0.0228,0.132,3.45,0.132,3.45,0.38315608898660786,0.0,0.9236836100486392,-0.0,1.0,0.0,0.2,1.0,1.0, 1.0
95,0.0228,0.132,3.45,0.132,3.45,0.4485898001858447,0.0,0.8937377642067185,-0.0,1.0,0.0,0.2,1.0,1.0, 1.0
96,0.0228,0.132,3.45,0.132,3.45,0.5115445340838303,0.0,0.8592567658441549,-0.0,1.0,0.0,0.2,1.0,1.0, 1.0
97,0.0228,0.132,3.45,0.132,3.45,0.5715952380411198,0.0,0.8205357297819001,-0.0,1.0,0.0,0.2,1.0,1.0, 1.0
98,0.0228,0.132,3.45,0.132,3.45,0.6283908676078384,0.0,0.7778977551754911,-0.0,1.0,0.0,0.2,1.0,1.0, 1.0
99,0.0228,0.132,3.45,0.132,3.45,0.6817431678471377,0.0,0.7315915889987729,-0.0,1.0,0.0,0.2,1.0,1.0, 1.0
100,0.0228,0.132,3.45,0.132,3.45,0.035428356413945455,0.0,0.9993722187262393,-0.0,1.0,0.0,0.2,1.0,1.0, 1.0
101,0.0228,0.132,3.45,0.132,3.45,0.10634217146826574,0.0,0.9943295945346362,-0.0,1.0,0.0,0.2,1.0,1.0, 1.0
102,0.0228,0.132,3.45,0.132,3.45,0.1769342807753453,0.0,0.9842226680413896,-0.0,1.0,0.0,0.2,1.0,1.0, 1.0
103,0.0228,0.132,3.45,0.132,3.45,0.24682038531420036,0.0,0.9690612454294877,-0.0,1.0,0.0,0.2,1.0,1.0, 1.0
104,0.0228,0.132,3.45,0.132,3.45,0.31558984020046466,0.0,0.9488957017303035,-0.0,1.0,0.0,0.2,1.0,1.0, 1.0
105,0.0228,0.132,3.45,0.132,3.45,0.3828160223314232,0.0,0.9238246008016605,-0.0,1.0,0.0,0.2,1.0,1.0, 1.0
106,0.0228,0.132,3.45,0.132,3.45,0.4480623013845586,0.0,0.8940023344924626,-0.0,1.0,0.0,0.2,1.0,1.0, 1.0
107,0.0228,0.132,3.45,0.132,3.45,0.5109144084362335,0.0,0.8596315880958851,-0.0,1.0,0.0,0.2,1.0,1.0, 1.0
108,0.0228,0.132,3.45,0.132,3.45,0.5709941546451146,0.0,0.8209541250040167,-0.0,1.0,0.0,0.2,1.0,1.0, 1.0
109,0.0228,0.132,3.45,0.132,3.45,0.6279616858929609,0.0,0.7782442553918855,-0.0,1.0,0.0,0.2,1.0,1.0, 1.0
110,0.0228,0.132,3.45,0.132,3.45,0.6815910263966587,0.0,0.7317333344433267,-0.0,1.0,0.0,0.2,1.0,1.0, 1.0
111,0.0228,0.132,3.45,0.132,3.45,0.035591100676959544,0.0,0.9993664360746776,-0.0,1.0,0.0,0.2,1.0,1.0, 1.0
112,0.0228,0.132,3.45,0.132,3.45,0.10669012566314601,0.0,0.9942923197359931,-0.0,1.0,0.0,0.2,1.0,1.0, 1.0
113,0.0228,0.132,3.45,0.132,3.45,0.1773227551184373,0.0,0.9841527526340649,-0.0,1.0,0.0,0.2,1.0,1.0, 1.0
114,0.0228,0.132,3.45,0.132,3.45,0.24711723530201793,0.0,0.9689855891687383,-0.0,1.0,0.0,0.2,1.0,1.0, 1.0
115,0.0228,0.132,3.45,0.132,3.45,0.3156992145436638,0.0,0.9488593183062038,-0.0,1.0,0.0,0.2,1.0,1.0, 1.0
116,0.0228,0.132,3.45,0.132,3.45,0.3826975057726615,0.0,0.9238737029894204,-0.0,1.0,0.0,0.2,1.0,1.0, 1.0
117,0.0228,0.132,3.45,0.132,3.45,0.4477429282229449,0.0,0.8941623287895453,-0.0,1.0,0.0,0.2,1.0,1.0, 1.0
118,0.0228,0.132,3.45,0.132,3.45,0.5104684359302809,0.0,0.8598964913981757,-0.0,1.0,0.0,0.2,1.0,1.0, 1.0
119,0.0228,0.132,3.45,0.132,3.45,0.5705367694891778,0.0,0.8212720588579967,-0.0,1.0,0.0,0.2,1.0,1.0, 1.0
120,0.0228,0.132,3.45,0.132,3.45,0.6276284273252843,0.0,0.7785130424168821,-0.0,1.0,0.0,0.2,1.0,1.0, 1.0
121,0.0228,0.132,3.45,0.132,3.45,0.6814723738366735,0.0,0.7318438383271454,-0.0,1.0,0.0,0.2,1.0,1.0, 1.0
122,0.0228,0.132,3.45,0.132,3.45,0.039589096891375936,0.0,0.9992160444104795,-0.0,1.0,0.0,0.2,1.0,1.0, 1.0
123,0.0228,0.132,3.45,0.132,3.45,0.11850556567081737,0.0,0.9929533880827637,-0.0,1.0,0.0,0.2,1.0,1.0, 1.0
124,0.0228,0.132,3.45,0.132,3.45,0.19648493380045615,0.0,0.9805068438259013,-0.0,1.0,0.0,0.2,1.0,1.0, 1.0
125,0.0228,0.132,3.45,0.132,3.45,0.2729251141245164,0.0,0.9620352810994613,-0.0,1.0,0.0,0.2,1.0,1.0, 1.0
126,0.0228,0.132,3.45,0.132,3.45,0.3470489448160335,0.0,0.9378470183895014,-0.0,1.0,0.0,0.2,1.0,1.0, 1.0
127,0.0228,0.132,3.45,0.132,3.45,0.4179809786966663,0.0,0.9084557784767385,-0.0,1.0,0.0,0.2,1.0,1.0, 1.0
128,0.0228,0.132,3.45,0.132,3.45,0.4848537020680042,0.0,0.8745952707343843,-0.0,1.0,0.0,0.2,1.0,1.0, 1.0
129,0.0228,0.132,3.45,0.132,3.45,0.546811637989782,0.0,0.8372556554356211,-0.0,1.0,0.0,0.2,1.0,1.0, 1.0
130,0.0228,0.132,3.45,0.132,3.45,0.6028391280656168,0.0,0.797862761177063,-0.0,1.0,0.0,0.2,1.0,1.0, 1.0
131,0.0228,0.132,3.45,0.132,3.45,0.6514553707396277,0.0,0.758686957799127,-0.0,1.0,0.0,0.2,1.0,1.0, 1.0
132,0.0228,0.132,3.45,0.132,3.45,0.6904758918196892,0.0,0.7233554056035005,-0.0,1.0,0.0,0.2,1.0,1.0, 1.0
133,0.0228,0.132,3.45,0.132,3.45,0.03763772050559601,0.0,0.9992914499760029,-0.0,1.0,0.0,0.2,1.0,1.0, 1.0
134,0.0228,0.132,3.45,0.132,3.45,0.11282423335159704,0.0,0.9936149618280837,-0.0,1.0,0.0,0.2,1.0,1.0, 1.0
135,0.0228,0.132,3.45,0.132,3.45,0.18750250887451186,0.0,0.9822641239329489,-0.0,1.0,0.0,0.2,1.0,1.0, 1.0
136,0.0228,0.132,3.45,0.132,3.45,0.26121782567511975,0.0,0.965279880423063,-0.0,1.0,0.0,0.2,1.0,1.0, 1.0
137,0.0228,0.132,3.45,0.132,3.45,0.3332903234156975,0.0,0.9428242467806286,-0.0,1.0,0.0,0.2,1.0,1.0, 1.0
138,0.0228,0.132,3.45,0.132,3.45,0.4029008205669051,0.0,0.9152436444939208,-0.0,1.0,0.0,0.2,1.0,1.0, 1.0
139,0.0228,0.132,3.45,0.132,3.45,0.4692119222418176,0.0,0.8830855972249454,-0.0,1.0,0.0,0.2,1.0,1.0, 1.0
140,0.0228,0.132,3.45,0.132,3.45,0.5314012941978058,0.0,0.8471202184606959,-0.0,1.0,0.0,0.2,1.0,1.0, 1.0
141,0.0228,0.132,3.45,0.132,3.45,0.5886845505110677,0.0,0.8083628516882638,-0.0,1.0,0.0,0.2,1.0,1.0, 1.0
142,0.0228,0.132,3.45,0.132,3.45,0.6403266201505285,0.0,0.7681027402155266,-0.0,1.0,0.0,0.2,1.0,1.0, 1.0
143,0.0228,0.132,3.45,0.132,3.45,0.6860269110272896,0.0,0.727576166010374,-0.0,1.0,0.0,0.2,1.0,1.0, 1.0
144,0.0228,0.132,3.45,0.132,3.45,0.036621884725161,0.0,0.9993291937891022,-0.0,1.0,0.0,0.2,1.0,1.0, 1.0
145,0.0228,0.132,3.45,0.132,3.45,0.10988222002272145,0.0,0.9939446150177977,-0.0,1.0,0.0,0.2,1.0,1.0, 1.0
146,0.0228,0.132,3.45,0.132,3.45,0.18284379464159775,0.0,0.9831419769092669,-0.0,1.0,0.0,0.2,1.0,1.0, 1.0
147,0.0228,0.132,3.45,0.132,3.45,0.2551102031802384,0.0,0.9669119837055167,-0.0,1.0,0.0,0.2,1.0,1.0, 1.0
148,0.0228,0.132,3.45,0.132,3.45,0.3260660983868394,0.0,0.9453469730648023,-0.0,1.0,0.0,0.2,1.0,1.0, 1.0
149,0.0228,0.132,3.45,0.132,3.45,0.39495489453529786,0.0,0.9187005122903827,-0.0,1.0,0.0,0.2,1.0,1.0, 1.0
150,0.0228,0.132,3.45,0.132,3.45,0.46099106533336487,0.0,0.8874047766846928,-0.0,1.0,0.0,0.2,1.0,1.0, 1.0
151,0.0228,0.132,3.45,0.132,3.45,0.523411490257281,0.0,0.8520800501517756,-0.0,1.0,0.0,0.2,1.0,1.0, 1.0
152,0.0228,0.132,3.45,0.132,3.45,0.5815870713887343,0.0,0.8134841598909442,-0.0,1.0,0.0,0.2,1.0,1.0, 1.0
153,0.0228,0.132,3.45,0.132,3.45,0.6351182090259583,0.0,0.7724149536121495,-0.0,1.0,0.0,0.2,1.0,1.0, 1.0
154,0.0228,0.132,3.45,0.132,3.45,0.684077856571485,0.0,0.7294089978527567,-0.0,1.0,0.0,0.2,1.0,1.0, 1.0
155,0.0228,0.132,3.45,0.132,3.45,0.03609319680514108,0.0,0.9993484282993521,-0.0,1.0,0.0,0.2,1.0,1.0, 1.0
156,0.0228,0.132,3.45,0.132,3.45,0.10836713038282088,0.0,0.9941109420243763,-0.0,1.0,0.0,0.2,1.0,1.0, 1.0
157,0.0228,0.132,3.45,0.132,3.45,0.18043976358490932,0.0,0.9835860367641571,-0.0,1.0,0.0,0.2,1.0,1.0, 1.0
158,0.0228,0.132,3.45,0.132,3.45,0.25193263252032033,0.0,0.967744774551318,-0.0,1.0,0.0,0.2,1.0,1.0, 1.0
159,0.0228,0.132,3.45,0.132,3.45,0.3222749256431083,0.0,0.9466461177767164,-0.0,1.0,0.0,0.2,1.0,1.0, 1.0
160,0.0228,0.132,3.45,0.132,3.45,0.3907634451845183,0.0,0.9204911351596635,-0.0,1.0,0.0,0.2,1.0,1.0, 1.0
161,0.0228,0.132,3.45,0.132,3.45,0.4566635296002201,0.0,0.8896394891938357,-0.0,1.0,0.0,0.2,1.0,1.0, 1.0
162,0.0228,0.132,3.45,0.132,3.45,0.5192740614900947,0.0,0.8546077749842798,-0.0,1.0,0.0,0.2,1.0,1.0, 1.0
163,0.0228,0.132,3.45,0.132,3.45,0.5780387873230741,0.0,0.8160092893773147,-0.0,1.0,0.0,0.2,1.0,1.0, 1.0
164,0.0228,0.132,3.45,0.132,3.45,0.6326481944931326,0.0,0.7744393210604557,-0.0,1.0,0.0,0.2,1.0,1.0, 1.0
165,0.0228,0.132,3.45,0.132,3.45,0.6831930885132831,0.0,0.7302377721041834,-0.0,1.0,0.0,0.2,1.0,1.0, 1.0
166,0.0228,0.132,3.45,0.132,3.45,0.035790382406246685,0.0,0.999359319027553,-0.0,1.0,0.0,0.2,1.0,1.0, 1.0
167,0.0228,0.132,3.45,0.132,3.45,0.10751054578924318,0.0,0.994203944140285,-0.0,1.0,0.0,0.2,1.0,1.0, 1.0
168,0.0228,0.132,3.45,0.132,3.45,0.17907100268903897,0.0,0.9838361530234301,-0.0,1.0,0.0,0.2,1.0,1.0, 1.0
169,0.0228,0.132,3.45,0.132,3.45,0.2500939810370585,0.0,0.9682215658871864,-0.0,1.0,0.0,0.2,1.0,1.0, 1.0
170,0.0228,0.132,3.45,0.132,3.45,0.3200424192509618,0.0,0.9474032139907441,-0.0,1.0,0.0,0.2,1.0,1.0, 1.0
171,0.0228,0.132,3.45,0.132,3.45,0.3882611853706689,0.0,0.9215493757442209,-0.0,1.0,0.0,0.2,1.0,1.0, 1.0
172,0.0228,0.132,3.45,0.132,3.45,0.4540677280904944,0.0,0.8909671701621429,-0.0,1.0,0.0,0.2,1.0,1.0, 1.0
173,0.0228,0.132,3.45,0.132,3.45,0.5168138925682034,0.0,0.8560977750517178,-0.0,1.0,0.0,0.2,1.0,1.0, 1.0
174,0.0228,0.132,3.45,0.132,3.45,0.5759777627251582,0.0,0.8174653612515466,-0.0,1.0,0.0,0.2,1.0,1.0, 1.0
175,0.0228,0.132,3.45,0.132,3.45,0.6312611596684556,0.0,0.7755703374253277,-0.0,1.0,0.0,0.2,1.0,1.0, 1.0
176,0.0228,0.132,3.45,0.132,3.45,0.6827114946046338,0.0,0.730688042282551,-0.0,1.0,0.0,0.2,1.0,1.0, 1.0
177,0.0228,0.132,3.45,0.132,3.45,0.0355977317131401,0.0,0.9993661998971544,-0.0,1.0,0.0,0.2,1.0,1.0, 1.0
178,0.0228,0.132,3.45,0.132,3.45,0.10697349347223822,0.0,0.9942618727952636,-0.0,1.0,0.0,0.2,1.0,1.0, 1.0
179,0.0228,0.132,3.45,0.132,3.45,0.17819947981377612,0.0,0.9839943828061721,-0.0,1.0,0.0,0.2,1.0,1.0, 1.0
180,0.0228,0.132,3.45,0.132,3.45,0.24888843002941663,0.0,0.9685321622937939,-0.0,1.0,0.0,0.2,1.0,1.0, 1.0
181,0.0228,0.132,3.45,0.132,3.45,0.3185333199422495,0.0,0.947911664706458,-0.0,1.0,0.0,0.2,1.0,1.0, 1.0
182,0.0228,0.132,3.45,0.132,3.45,0.38652896781654555,0.0,0.9222772668989928,-0.0,1.0,0.0,0.2,1.0,1.0, 1.0
183,0.0228,0.132,3.45,0.132,3.45,0.45224439573840647,0.0,0.8918940556608748,-0.0,1.0,0.0,0.2,1.0,1.0, 1.0
184,0.0228,0.132,3.45,0.132,3.45,0.5150735346763393,0.0,0.8571459933267038,-0.0,1.0,0.0,0.2,1.0,1.0, 1.0
185,0.0228,0.132,3.45,0.132,3.45,0.574527822465728,0.0,0.8184850525286268,-0.0,1.0,0.0,0.2,1.0,1.0, 1.0
186,0.0228,0.132,3.45,0.132,3.45,0.6303068707998393,0.0,0.7763460881736411,-0.0,1.0,0.0,0.2,1.0,1.0, 1.0
187,0.0228,0.132,3.45,0.132,3.45,0.6823881842103837,0.0,0.7309899903897833,-0.0,1.0,0.0,0.2,1.0,1.0, 1.0
188,0.0228,0.132,3.45,0.132,3.45,0.03547028732099874,0.0,0.999370731369178,-0.0,1.0,0.0,0.2,1.0,1.0, 1.0
189,0.0228,0.132,3.45,0.132,3.45,0.106626072037668,0.0,0.9942991907679589,-0.0,1.0,0.0,0.2,1.0,1.0, 1.0
190,0.0228,0.132,3.45,0.132,3.45,0.17762272221064174,0.0,0.984098657937547,-0.0,1.0,0.0,0.2,1.0,1.0, 1.0
191,0.0228,0.132,3.45,0.132,3.45,0.2480536850046283,0.0,0.9687462874022407,-0.0,1.0,0.0,0.2,1.0,1.0, 1.0
192,0.0228,0.132,3.45,0.132,3.45,0.317440156630372,0.0,0.948278306700351,-0.0,1.0,0.0,0.2,1.0,1.0, 1.0
193,0.0228,0.132,3.45,0.132,3.45,0.38522576731483327,0.0,0.9228223600437399,-0.0,1.0,0.0,0.2,1.0,1.0, 1.0
194,0.0228,0.132,3.45,0.132,3.45,0.4508296017160518,0.0,0.8926100325542762,-0.0,1.0,0.0,0.2,1.0,1.0, 1.0
195,0.0228,0.132,3.45,0.132,3.45,0.5137051605212658,0.0,0.857966787267328,-0.0,1.0,0.0,0.2,1.0,1.0, 1.0
196,0.0228,0.132,3.45,0.132,3.45,0.5733908337832526,0.0,0.8192819732749808,-0.0,1.0,0.0,0.2,1.0,1.0, 1.0
197,0.0228,0.132,3.45,0.132,3.45,0.6295655510700146,0.0,0.7769473707439322,-0.0,1.0,0.0,0.2,1.0,1.0, 1.0
198,0.0228,0.132,3.45,0.132,3.45,0.6821390930774499,0.0,0.7312224406399698,-0.0,1.0,0.0,0.2,1.0,1.0, 1.0
199,0.0228,0.132,3.45,0.132,3.45,0.03539836203032069,0.0,0.9993732815948055,-0.0,1.0,0.0,0.2,1.0,1.0, 1.0
200,0.0228,0.132,3.45,0.132,3.45,0.10643093095582593,0.0,0.9943200978235712,-0.0,1.0,0.0,0.2,1.0,1.0, 1.0
201,0.0228,0.132,3.45,0.132,3.45,0.17727188772643696,0.0,0.9841619164659368,-0.0,1.0,0.0,0.2,1.0,1.0, 1.0
202,0.0228,0.132,3.45,0.132,3.45,0.24749764253912043,0.0,0.9688884956162798,-0.0,1.0,0.0,0.2,1.0,1.0, 1.0
203,0.0228,0.132,3.45,0.132,3.45,0.31665595763437876,0.0,0.9485404601252677,-0.0,1.0,0.0,0.2,1.0,1.0, 1.0
204,0.0228,0.132,3.45,0.132,3.45,0.3842382690169773,0.0,0.923233964183964,-0.0,1.0,0.0,0.2,1.0,1.0, 1.0
205,0.0228,0.132,3.45,0.132,3.45,0.4497205912435626,0.0,0.8931692951571614,-0.0,1.0,0.0,0.2,1.0,1.0, 1.0
206,0.0228,0.132,3.45,0.132,3.45,0.512602834250685,0.0,0.8586258407002231,-0.0,1.0,0.0,0.2,1.0,1.0, 1.0
207,0.0228,0.132,3.45,0.132,3.45,0.5724502392950425,0.0,0.8199394633331468,-0.0,1.0,0.0,0.2,1.0,1.0, 1.0
208,0.0228,0.132,3.45,0.132,3.45,0.6289452164728616,0.0,0.7774496219536705,-0.0,1.0,0.0,0.2,1.0,1.0, 1.0
209,0.0228,0.132,3.45,0.132,3.45,0.6819311305196475,0.0,0.7314163884055344,-0.0,1.0,0.0,0.2,1.0,1.0, 1.0
210,0.0228,0.132,3.45,0.132,3.45,0.035386259901769614,0.0,0.9993737101856163,-0.0,1.0,0.0,0.2,1.0,1.0, 1.0
211,0.0228,0.132,3.45,0.132,3.45,0.10638544823465713,0.0,0.9943249651919192,-0.0,1.0,0.0,0.2,1.0,1.0, 1.0
212,0.0228,0.132,3.45,0.132,3.45,0.17712966405616232,0.0,0.9841875238547536,-0.0,1.0,0.0,0.2,1.0,1.0, 1.0
213,0.0228,0.132,3.45,0.132,3.45,0.24719078012475523,0.0,0.968966830299838,-0.0,1.0,0.0,0.2,1.0,1.0, 1.0
214,0.0228,0.132,3.45,0.132,3.45,0.31614387027429725,0.0,0.9487112591763568,-0.0,1.0,0.0,0.2,1.0,1.0, 1.0
215,0.0228,0.132,3.45,0.132,3.45,0.38352692195883825,0.0,0.9235296964000557,-0.0,1.0,0.0,0.2,1.0,1.0, 1.0
216,0.0228,0.132,3.45,0.132,3.45,0.44887151359903527,0.0,0.8935963094593168,-0.0,1.0,0.0,0.2,1.0,1.0, 1.0
217,0.0228,0.132,3.45,0.132,3.45,0.5117205472279412,0.0,0.8591519548628964,-0.0,1.0,0.0,0.2,1.0,1.0, 1.0
218,0.0228,0.132,3.45,0.132,3.45,0.5716737421231732,0.0,0.8204810372987834,-0.0,1.0,0.0,0.2,1.0,1.0, 1.0
219,0.0228,0.132,3.45,0.132,3.45,0.6284197019361323,0.0,0.7778744617343486,-0.0,1.0,0.0,0.2,1.0,1.0, 1.0
220,0.0228,0.132,3.45,0.132,3.45,0.6817518213414738,0.0,0.7315835250315464,-0.0,1.0,0.0,0.2,1.0,1.0, 1.0
221,0.0228,0.132,3.45,0.132,3.45,0.03544368187417765,0.0,0.999371675311644,-0.0,1.0,0.0,0.2,1.0,1.0, 1.0
222,0.0228,0.132,3.45,0.132,3.45,0.10649155905823811,0.0,0.9943136063885206,-0.0,1.0,0.0,0.2,1.0,1.0, 1.0
223,0.0228,0.132,3.45,0.132,3.45,0.17718995056818895,0.0,0.9841766718519814,-0.0,1.0,0.0,0.2,1.0,1.0, 1.0
224,0.0228,0.132,3.45,0.132,3.45,0.24711754358240395,0.0,0.9689855105489444,-0.0,1.0,0.0,0.2,1.0,1.0, 1.0
225,0.0228,0.132,3.45,0.132,3.45,0.3158800152888733,0.0,0.9487991441507001,-0.0,1.0,0.0,0.2,1.0,1.0, 1.0
226,0.0228,0.132,3.45,0.132,3.45,0.38306506591935724,0.0,0.923721362355661,-0.0,1.0,0.0,0.2,1.0,1.0, 1.0
227,0.0228,0.132,3.45,0.132,3.45,0.4482530006993483,0.0,0.8939067330342858,-0.0,1.0,0.0,0.2,1.0,1.0, 1.0
228,0.0228,0.132,3.45,0.132,3.45,0.5110406715411764,0.0,0.8595565321901426,-0.0,1.0,0.0,0.2,1.0,1.0, 1.0
229,0.0228,0.132,3.45,0.132,3.45,0.5710602296770454,0.0,0.8209081642188731,-0.0,1.0,0.0,0.2,1.0,1.0, 1.0
230,0.0228,0.132,3.45,0.132,3.45,0.6279912390557316,0.0,0.7782204081552007,-0.0,1.0,0.0,0.2,1.0,1.0, 1.0
231,0.0228,0.132,3.45,0.132,3.45,0.6815998839881433,0.0,0.7317250837215776,-0.0,1.0,0.0,0.2,1.0,1.0, 1.0
232,0.0228,0.132,3.45,0.132,3.45,0.035592059971604716,0.0,0.9993664019102192,-0.0,1.0,0.0,0.2,1.0,1.0, 1.0
233,0.0228,0.132,3.45,0.132,3.45,0.10673967491973146,0.0,0.9942870017243663,-0.0,1.0,0.0,0.2,1.0,1.0, 1.0
234,0.0228,0.132,3.45,0.132,3.45,0.17741209055962903,0.0,0.984136652159273,-0.0,1.0,0.0,0.2,1.0,1.0, 1.0
235,0.0228,0.132,3.45,0.132,3.45,0.24722100389726964,0.0,0.9689591194844218,-0.0,1.0,0.0,0.2,1.0,1.0, 1.0
236,0.0228,0.132,3.45,0.132,3.45,0.31580258820497953,0.0,0.9488249181398201,-0.0,1.0,0.0,0.2,1.0,1.0, 1.0
237,0.0228,0.132,3.45,0.132,3.45,0.3827868158183604,0.0,0.9238367029056817,-0.0,1.0,0.0,0.2,1.0,1.0, 1.0
238,0.0228,0.132,3.45,0.132,3.45,0.44780703101768204,0.0,0.8941302270760836,-0.0,1.0,0.0,0.2,1.0,1.0, 1.0
239,0.0228,0.132,3.45,0.132,3.45,0.5105084066871254,0.0,0.8598727619257238,-0.0,1.0,0.0,0.2,1.0,1.0, 1.0
240,0.0228,0.132,3.45,0.132,3.45,0.5705580808870437,0.0,0.8212572534440677,-0.0,1.0,0.0,0.2,1.0,1.0, 1.0
241,0.0228,0.132,3.45,0.132,3.45,0.6276367071678195,0.0,0.7785063672286417,-0.0,1.0,0.0,0.2,1.0,1.0, 1.0
242,0.0228,0.132,3.45,0.132,3.45,0.6814739309965129,0.0,0.731842388340659,-0.0,1.0,0.0,0.2,1.0,1.0, 1.0
243,0.0228,0.132,3.45,0.132,3.45,0.03883613809256322,0.0,0.999245592623783,-0.0,1.0,0.0,0.2,1.0,1.0, 1.0
244,0.0228,0.132,3.45,0.132,3.45,0.11613147241008588,0.0,0.9932338501661457,-0.0,1.0,0.0,0.2,1.0,1.0, 1.0
245,0.0228,0.132,3.45,0.132,3.45,0.19282044206944787,0.0,0.9812340582756709,-0.0,1.0,0.0,0.2,1.0,1.0, 1.0
246,0.0228,0.132,3.45,0.132,3.45,0.2684325554568448,0.0,0.9632984808307901,-0.0,1.0,0.0,0.2,1.0,1.0, 1.0
247,0.0228,0.132,3.45,0.132,3.45,0.3421164769148719,0.0,0.9396575526346584,-0.0,1.0,0.0,0.2,1.0,1.0, 1.0
248,0.0228,0.132,3.45,0.132,3.45,0.41292143896838557,0.0,0.9107666469740083,-0.0,1.0,0.0,0.2,1.0,1.0, 1.0
249,0.0228,0.132,3.45,0.132,3.45,0.47995449512237004,0.0,0.8772933845708806,-0.0,1.0,0.0,0.2,1.0,1.0, 1.0
250,0.0228,0.132,3.45,0.132,3.45,0.5423983237626643,0.0,0.840121454540623,-0.0,1.0,0.0,0.2,1.0,1.0, 1.0
251,0.0228,0.132,3.45,0.132,3.45,0.5993600253662299,0.0,0.8004795812467624,-0.0,1.0,0.0,0.2,1.0,1.0, 1.0
252,0.0228,0.132,3.45,0.132,3.45,0.6493534246118079,0.0,0.7604867717093553,-0.0,1.0,0.0,0.2,1.0,1.0, 1.0
253,0.0228,0.132,3.45,0.132,3.45,0.6898139164191971,0.0,0.723986713078637,-0.0,1.0,0.0,0.2,1.0,1.0, 1.0
254,0.0228,0.132,3.45,0.132,3.45,0.037111017718892955,0.0,0.9993111489240315,-0.0,1.0,0.0,0.2,1.0,1.0, 1.0
255,0.0228,0.132,3.45,0.132,3.45,0.11115665537563658,0.0,0.9938028969396809,-0.0,1.0,0.0,0.2,1.0,1.0, 1.0
256,0.0228,0.132,3.45,0.132,3.45,0.184950123053257,0.0,0.9827479086635519,-0.0,1.0,0.0,0.2,1.0,1.0, 1.0
257,0.0228,0.132,3.45,0.132,3.45,0.2581253181246281,0.0,0.9661114429210843,-0.0,1.0,0.0,0.2,1.0,1.0, 1.0
258,0.0228,0.132,3.45,0.132,3.45,0.3299356481530788,0.0,0.9440034258824529,-0.0,1.0,0.0,0.2,1.0,1.0, 1.0
259,0.0228,0.132,3.45,0.132,3.45,0.39949577017916377,0.0,0.9167350378429728,-0.0,1.0,0.0,0.2,1.0,1.0, 1.0
260,0.0228,0.132,3.45,0.132,3.45,0.4659353680226913,0.0,0.8848187570488993,-0.0,1.0,0.0,0.2,1.0,1.0, 1.0
261,0.0228,0.132,3.45,0.132,3.45,0.5284462919696711,0.0,0.8489667346271614,-0.0,1.0,0.0,0.2,1.0,1.0, 1.0
262,0.0228,0.132,3.45,0.132,3.45,0.5863159810573683,0.0,0.8100824466415354,-0.0,1.0,0.0,0.2,1.0,1.0, 1.0
263,0.0228,0.132,3.45,0.132,3.45,0.6388218686369791,0.0,0.7693546777339814,-0.0,1.0,0.0,0.2,1.0,1.0, 1.0
264,0.0228,0.132,3.45,0.132,3.45,0.6855231696503198,0.0,0.7280508113260906,-0.0,1.0,0.0,0.2,1.0,1.0, 1.0
265,0.0228,0.132,3.45,0.132,3.45,0.03634365234731741,0.0,0.9993393512386357,-0.0,1.0,0.0,0.2,1.0,1.0, 1.0
266,0.0228,0.132,3.45,0.132,3.45,0.10895786587640356,0.0,0.9940463688700139,-0.0,1.0,0.0,0.2,1.0,1.0, 1.0
267,0.0228,0.132,3.45,0.132,3.45,0.1814548941384365,0.0,0.9833992685543389,-0.0,1.0,0.0,0.2,1.0,1.0, 1.0
268,0.0228,0.132,3.45,0.132,3.45,0.25349744122963747,0.0,0.967336057060847,-0.0,1.0,0.0,0.2,1.0,1.0, 1.0
269,0.0228,0.132,3.45,0.132,3.45,0.3244091592096752,0.0,0.9459168554481263,-0.0,1.0,0.0,0.2,1.0,1.0, 1.0
270,0.0228,0.132,3.45,0.132,3.45,0.39336599549442314,0.0,0.9193819628362748,-0.0,1.0,0.0,0.2,1.0,1.0, 1.0
271,0.0228,0.132,3.45,0.132,3.45,0.459543973776907,0.0,0.8881550180938739,-0.0,1.0,0.0,0.2,1.0,1.0, 1.0
272,0.0228,0.132,3.45,0.132,3.45,0.5221823716310958,0.0,0.8528338470990255,-0.0,1.0,0.0,0.2,1.0,1.0, 1.0
273,0.0228,0.132,3.45,0.132,3.45,0.5806439646283635,0.0,0.8141575930620898,-0.0,1.0,0.0,0.2,1.0,1.0, 1.0
274,0.0228,0.132,3.45,0.132,3.45,0.6345380612157718,0.0,0.772891615214274,-0.0,1.0,0.0,0.2,1.0,1.0, 1.0
275,0.0228,0.132,3.45,0.132,3.45,0.6838903668703278,0.0,0.729584790207395,-0.0,1.0,0.0,0.2,1.0,1.0, 1.0
276,0.0228,0.132,3.45,0.132,3.45,0.03599865109017933,0.0,0.9993518385031807,-0.0,1.0,0.0,0.2,1.0,1.0, 1.0
277,0.0228,0.132,3.45,0.132,3.45,0.10797434295607428,0.0,0.99415368090814,-0.0,1.0,0.0,0.2,1.0,1.0, 1.0
278,0.0228,0.132,3.45,0.132,3.45,0.1798685943598382,0.0,0.9836906468819432,-0.0,1.0,0.0,0.2,1.0,1.0, 1.0
279,0.0228,0.132,3.45,0.132,3.45,0.2513479568827911,0.0,0.9678967943798794,-0.0,1.0,0.0,0.2,1.0,1.0, 1.0
280,0.0228,0.132,3.45,0.132,3.45,0.321778817262467,0.0,0.9468148672053939,-0.0,1.0,0.0,0.2,1.0,1.0, 1.0
281,0.0228,0.132,3.45,0.132,3.45,0.3903985003927895,0.0,0.9206459747867588,-0.0,1.0,0.0,0.2,1.0,1.0, 1.0
282,0.0228,0.132,3.45,0.132,3.45,0.45644209503570427,0.0,0.8897531196233127,-0.0,1.0,0.0,0.2,1.0,1.0, 1.0
283,0.0228,0.132,3.45,0.132,3.45,0.519197220809038,0.0,0.8546544599451705,-0.0,1.0,0.0,0.2,1.0,1.0, 1.0
284,0.0228,0.132,3.45,0.132,3.45,0.5780750175289123,0.0,0.8159836236769386,-0.0,1.0,0.0,0.2,1.0,1.0, 1.0
285,0.0228,0.132,3.45,0.132,3.45,0.6327222781862639,0.0,0.7743787953493975,-0.0,1.0,0.0,0.2,1.0,1.0, 1.0
286,0.0228,0.132,3.45,0.132,3.45,0.6832273466779186,0.0,0.7302057194732532,-0.0,1.0,0.0,0.2,1.0,1.0, 1.0
287,0.0228,0.132,3.45,0.132,3.45,0.03580970316042627,0.0,0.9993586269000544,-0.0,1.0,0.0,0.2,1.0,1.0, 1.0
288,0.0228,0.132,3.45,0.132,3.45,0.10743543614500815,0.0,0.9942120634252694,-0.0,1.0,0.0,0.2,1.0,1.0, 1.0
289,0.0228,0.132,3.45,0.132,3.45,0.1789718146204057,0.0,0.9838542013791878,-0.0,1.0,0.0,0.2,1.0,1.0, 1.0
290,0.0228,0.132,3.45,0.132,3.45,0.2500813431991629,0.0,0.9682248301834149,-0.0,1.0,0.0,0.2,1.0,1.0, 1.0
291,0.0228,0.132,3.45,0.132,3.45,0.32016870545183784,0.0,0.9473605438529169,-0.0,1.0,0.0,0.2,1.0,1.0, 1.0
292,0.0228,0.132,3.45,0.132,3.45,0.38852868141579416,0.0,0.9214366303318445,-0.0,1.0,0.0,0.2,1.0,1.0, 1.0
293,0.0228,0.132,3.45,0.132,3.45,0.4544537688488057,0.0,0.8907703250440692,-0.0,1.0,0.0,0.2,1.0,1.0, 1.0
294,0.0228,0.132,3.45,0.132,3.45,0.5172790448054628,0.0,0.8558167968701876,-0.0,1.0,0.0,0.2,1.0,1.0, 1.0
295,0.0228,0.132,3.45,0.132,3.45,0.5764570183663575,0.0,0.8171274722931355,-0.0,1.0,0.0,0.2,1.0,1.0, 1.0
296,0.0228,0.132,3.45,0.132,3.45,0.6316379538350007,0.0,0.7752635005436109,-0.0,1.0,0.0,0.2,1.0,1.0, 1.0
297,0.0228,0.132,3.45,0.132,3.45,0.6828525668357085,0.0,0.7305562072598413,-0.0,1.0,0.0,0.2,1.0,1.0, 1.0
298,0.0228,0.132,3.45,0.132,3.45,0.03568291877229311,0.0,0.9993631618725446,-0.0,1.0,0.0,0.2,1.0,1.0, 1.0
299,0.0228,0.132,3.45,0.132,3.45,0.10707458948498681,0.0,0.9942509905887051,-0.0,1.0,0.0,0.2,1.0,1.0, 1.0
300,0.0228,0.132,3.45,0.132,3.45,0.17834719372891375,0.0,0.983967620650711,-0.0,1.0,0.0,0.2,1.0,1.0, 1.0
301,0.0228,0.132,3.45,0.132,3.45,0.2491555522665736,0.0,0.9684634793190391,-0.0,1.0,0.0,0.2,1.0,1.0, 1.0
302,0.0228,0.132,3.45,0.132,3.45,0.31894644217730334,0.0,0.9477727401769056,-0.0,1.0,0.0,0.2,1.0,1.0, 1.0
303,0.0228,0.132,3.45,0.132,3.45,0.3870705501987975,0.0,0.9220501012248739,-0.0,1.0,0.0,0.2,1.0,1.0, 1.0
304,0.0228,0.132,3.45,0.132,3.45,0.4528718739728626,0.0,0.8915756085516852,-0.0,1.0,0.0,0.2,1.0,1.0, 1.0
305,0.0228,0.132,3.45,0.132,3.45,0.5157335210816665,0.0,0.8567490503249515,-0.0,1.0,0.0,0.2,1.0,1.0, 1.0
306,0.0228,0.132,3.45,0.132,3.45,0.5751440391689958,0.0,0.8180521586111563,-0.0,1.0,0.0,0.2,1.0,1.0, 1.0
307,0.0228,0.132,3.45,0.132,3.45,0.6307581943239675,0.0,0.7759794457929722,-0.0,1.0,0.0,0.2,1.0,1.0, 1.0
308,0.0228,0.132,3.45,0.132,3.45,0.6825507834487532,0.0,0.7308381681422319,-0.0,1.0,0.0,0.2,1.0,1.0, 1.0
309,0.0228,0.132,3.45,0.132,3.45,0.035588188890715126,0.0,0.9993665397698078,-0.0,1.0,0.0,0.2,1.0,1.0, 1.0
310,0.0228,0.132,3.45,0.132,3.45,0.10680630352313439,0.0,0.9942798466868995,-0.0,1.0,0.0,0.2,1.0,1.0, 1.0
311,0.0228,0.132,3.45,0.132,3.45,0.177866830088907,0.0,0.9840545669596397,-0.0,1.0,0.0,0.2,1.0,1.0, 1.0
312,0.0228,0.132,3.45,0.132,3.45,0.24841199274469758,0.0,0.9686544697984975,-0.0,1.0,0.0,0.2,1.0,1.0, 1.0
313,0.0228,0.132,3.45,0.132,3.45,0.31792762163894556,0.0,0.948114986380346,-0.0,1.0,0.0,0.2,1.0,1.0, 1.0
314,0.0228,0.132,3.45,0.132,3.45,0.38582023732042,0.0,0.922573977778484,-0.0,1.0,0.0,0.2,1.0,1.0, 1.0
315,0.0228,0.132,3.45,0.132,3.45,0.45148673964163655,0.0,0.8922778288895029,-0.0,1.0,0.0,0.2,1.0,1.0, 1.0
316,0.0228,0.132,3.45,0.132,3.45,0.5143722861636427,0.0,0.8575669951827598,-0.0,1.0,0.0,0.2,1.0,1.0, 1.0
317,0.0228,0.132,3.45,0.132,3.45,0.5739905939026646,0.0,0.8188618919642471,-0.0,1.0,0.0,0.2,1.0,1.0, 1.0
318,0.0228,0.132,3.45,0.132,3.45,0.6299870179483168,0.0,0.7766056639096752,-0.0,1.0,0.0,0.2,1.0,1.0, 1.0
319,0.0228,0.132,3.45,0.132,3.45,0.6822873806261859,0.0,0.7310840787749778,-0.0,1.0,0.0,0.2,1.0,1.0, 1.0
320,0.0228,0.132,3.45,0.132,3.45,0.035522918707801235,0.0,0.9993688619556239,-0.0,1.0,0.0,0.2,1.0,1.0, 1.0
321,0.0228,0.132,3.45,0.132,3.45,0.10662078598195972,0.0,0.9942997576166804,-0.0,1.0,0.0,0.2,1.0,1.0, 1.0
322,0.0228,0.132,3.45,0.132,3.45,0.17751077067645013,0.0,0.9841188578082695,-0.0,1.0,0.0,0.2,1.0,1.0, 1.0
323,0.0228,0.132,3.45,0.132,3.45,0.24782527658083175,0.0,0.968804744150045,-0.0,1.0,0.0,0.2,1.0,1.0, 1.0
324,0.0228,0.132,3.45,0.132,3.45,0.31708459233463315,0.0,0.9483972592242026,-0.0,1.0,0.0,0.2,1.0,1.0, 1.0
325,0.0228,0.132,3.45,0.132,3.45,0.38474937040455676,0.0,0.9230210842517613,-0.0,1.0,0.0,0.2,1.0,1.0, 1.0
326,0.0228,0.132,3.45,0.132,3.45,0.4502795133265493,0.0,0.8928876524392113,-0.0,1.0,0.0,0.2,1.0,1.0, 1.0
327,0.0228,0.132,3.45,0.132,3.45,0.5131627131569576,0.0,0.8582913432077655,-0.0,1.0,0.0,0.2,1.0,1.0, 1.0
328,0.0228,0.132,3.45,0.132,3.45,0.5729432980506458,0.0,0.8195950080490052,-0.0,1.0,0.0,0.2,1.0,1.0, 1.0
329,0.0228,0.132,3.45,0.132,3.45,0.6292869934303666,0.0,0.7771730051277963,-0.0,1.0,0.0,0.2,1.0,1.0, 1.0
330,0.0228,0.132,3.45,0.132,3.45,0.6820517417345977,0.0,0.7313039187620983,-0.0,1.0,0.0,0.2,1.0,1.0, 1.0
331,0.0228,0.132,3.45,0.132,3.45,0.035499937763847474,0.0,0.9993696785568206,-0.0,1.0,0.0,0.2,1.0,1.0, 1.0
332,0.0228,0.132,3.45,0.132,3.45,0.10654426940908811,0.0,0.9943079596664626,-0.0,1.0,0.0,0.2,1.0,1.0, 1.0
333,0.0228,0.132,3.45,0.132,3.45,0.17731197685456973,0.0,0.9841546945800362,-0.0,1.0,0.0,0.2,1.0,1.0, 1.0
334,0.0228,0.132,3.45,0.132,3.45,0.24742949959043573,0.0,0.9689058998336353,-0.0,1.0,0.0,0.2,1.0,1.0, 1.0
335,0.0228,0.132,3.45,0.132,3.45,0.3164511854296105,0.0,0.948608795679333,-0.0,1.0,0.0,0.2,1.0,1.0, 1.0
336,0.0228,0.132,3.45,0.132,3.45,0.3838893699987176,0.0,0.9233790941980373,-0.0,1.0,0.0,0.2,1.0,1.0, 1.0
337,0.0228,0.132,3.45,0.132,3.45,0.4492698851053222,0.0,0.8933960881588024,-0.0,1.0,0.0,0.2,1.0,1.0, 1.0
338,0.0228,0.132,3.45,0.132,3.45,0.5121216682171893,0.0,0.8589129158083741,-0.0,1.0,0.0,0.2,1.0,1.0, 1.0
339,0.0228,0.132,3.45,0.132,3.45,0.5720240779438699,0.0,0.8202368281493251,-0.0,1.0,0.0,0.2,1.0,1.0, 1.0
340,0.0228,0.132,3.45,0.132,3.45,0.6286664252217552,0.0,0.7776750772648557,-0.0,1.0,0.0,0.2,1.0,1.0, 1.0
341,0.0228,0.132,3.45,0.132,3.45,0.6818409371506733,0.0,0.731500469190206,-0.0,1.0,0.0,0.2,1.0,1.0, 1.0
342,0.0228,0.132,3.45,0.132,3.45,0.035531901142388,0.0,0.9993685426313996,-0.0,1.0,0.0,0.2,1.0,1.0, 1.0
343,0.0228,0.132,3.45,0.132,3.45,0.10659935088865817,0.0,0.9943020559116413,-0.0,1.0,0.0,0.2,1.0,1.0, 1.0
344,0.0228,0.132,3.45,0.132,3.45,0.17729984599492127,0.0,0.9841568800806999,-0.0,1.0,0.0,0.2,1.0,1.0, 1.0
345,0.0228,0.132,3.45,0.132,3.45,0.24725352998631372,0.0,0.9689508201706148,-0.0,1.0,0.0,0.2,1.0,1.0, 1.0
346,0.0228,0.132,3.45,0.132,3.45,0.3160551377735317,0.0,0.9487408233479541,-0.0,1.0,0.0,0.2,1.0,1.0, 1.0
347,0.0228,0.132,3.45,0.132,3.45,0.3832709870431477,0.0,0.9236359404500082,-0.0,1.0,0.0,0.2,1.0,1.0, 1.0
348,0.0228,0.132,3.45,0.132,3.45,0.4484789489734407,0.0,0.8937933946543115,-0.0,1.0,0.0,0.2,1.0,1.0, 1.0
349,0.0228,0.132,3.45,0.132,3.45,0.5112700832460446,0.0,0.8594200963309984,-0.0,1.0,0.0,0.2,1.0,1.0, 1.0
350,0.0228,0.132,3.45,0.132,3.45,0.5712660322735895,0.0,0.8207649604913638,-0.0,1.0,0.0,0.2,1.0,1.0, 1.0
351,0.0228,0.132,3.45,0.132,3.45,0.6281425760246978,0.0,0.7780982612659256,-0.0,1.0,0.0,0.2,1.0,1.0, 1.0
352,0.0228,0.132,3.45,0.132,3.45,0.6816557642282539,0.0,0.7316730274476402,-0.0,1.0,0.0,0.2,1.0,1.0, 1.0
353,0.0228,0.132,3.45,0.132,3.45,0.03562749492037114,0.0,0.9993651392787818,-0.0,1.0,0.0,0.2,1.0,1.0, 1.0
354,0.0228,0.132,3.45,0.132,3.45,0.10677853124718431,0.0,0.9942828296137342,-0.0,1.0,0.0,0.2,1.0,1.0, 1.0
355,0.0228,0.132,3.45,0.132,3.45,0.17744851225551805,0.0,0.9841300856585491,-0.0,1.0,0.0,0.2,1.0,1.0, 1.0
356,0.0228,0.132,3.45,0.132,3.45,0.24726421579166696,0.0,0.9689480933408828,-0.0,1.0,0.0,0.2,1.0,1.0, 1.0
357,0.0228,0.132,3.45,0.132,3.45,0.31585746844587714,0.0,0.9488066502860114,-0.0,1.0,0.0,0.2,1.0,1.0, 1.0
358,0.0228,0.132,3.45,0.132,3.45,0.38285338257713003,0.0,0.923809118513803,-0.0,1.0,0.0,0.2,1.0,1.0, 1.0
359,0.0228,0.132,3.45,0.132,3.45,0.4478781110148572,0.0,0.8940946245637332,-0.0,1.0,0.0,0.2,1.0,1.0, 1.0
360,0.0228,0.132,3.45,0.132,3.45,0.5105760911582997,0.0,0.8598325738988444,-0.0,1.0,0.0,0.2,1.0,1.0, 1.0
361,0.0228,0.132,3.45,0.132,3.45,0.5706183214314052,0.0,0.8212153988125195,-0.0,1.0,0.0,0.2,1.0,1.0, 1.0
362,0.0228,0.132,3.45,0.132,3.45,0.6276841646670678,0.0,0.7784681043088442,-0.0,1.0,0.0,0.2,1.0,1.0, 1.0
363,0.0228,0.132,3.45,0.132,3.45,0.6814937300160258,0.0,0.7318239514725139,-0.0,1.0,0.0,0.2,1.0,1.0, 1.0
364,0.0228,0.132,3.45,0.132,3.45,0.999102148512806,0.0,0.04236622283252128,-0.0,1.0,0.0,0.2,1.0,1.0, 1.0
365,0.0228,0.132,3.45,0.132,3.45,0.9919798611026226,0.0,0.12639602512271378,-0.0,1.0,0.0,0.2,1.0,1.0, 1.0
366,0.0228,0.132,3.45,0.132,3.45,0.9779037176154758,0.0,0.20905577981445966,-0.0,1.0,0.0,0.2,1.0,1.0, 1.0
367,0.0228,0.132,3.45,0.132,3.45,0.9571577961492334,0.0,0.2895668373117732,-0.0,1.0,0.0,0.2,1.0,1.0, 1.0
368,0.0228,0.132,3.45,0.132,3.45,0.9302772166084922,0.0,0.366857329569898,-0.0,1.0,0.0,0.2,1.0,1.0, 1.0
369,0.0228,0.132,3.45,0.132,3.45,0.8980520170631037,0.0,0.4398892754420038,-0.0,1.0,0.0,0.2,1.0,1.0, 1.0
370,0.0228,0.132,3.45,0.132,3.45,0.8614708941776412,0.0,0.5078069500162196,-0.0,1.0,0.0,0.2,1.0,1.0, 1.0
371,0.0228,0.132,3.45,0.132,3.45,0.8217110156435375,0.0,0.569904383883881,-0.0,1.0,0.0,0.2,1.0,1.0, 1.0
372,0.0228,0.132,3.45,0.132,3.45,0.7803706780104731,0.0,0.6253172034267684,-0.0,1.0,0.0,0.2,1.0,1.0, 1.0
373,0.0228,0.132,3.45,0.132,3.45,0.7403430784523894,0.0,0.6722292214621729,-0.0,1.0,0.0,0.2,1.0,1.0, 1.0
374,0.0228,0.132,3.45,0.132,3.45,0.7071448470764299,0.0,0.7070687132473426,-0.0,1.0,0.0,0.2,1.0,1.0, 1.0
375,0.0228,0.132,3.45,0.132,3.45,0.9988800107780681,0.0,0.04731515685281586,-0.0,1.0,0.0,0.2,1.0,1.0, 1.0
376,0.0228,0.132,3.45,0.132,3.45,0.9900461929702175,0.0,0.14074280011843945,-0.0,1.0,0.0,0.2,1.0,1.0, 1.0
377,0.0228,0.132,3.45,0.132,3.45,0.9727977359050797,0.0,0.231656135290976,-0.0,1.0,0.0,0.2,1.0,1.0, 1.0
378,0.0228,0.132,3.45,0.132,3.45,0.9478064600240874,0.0,0.31884622365116416,-0.0,1.0,0.0,0.2,1.0,1.0, 1.0
379,0.0228,0.132,3.45,0.132,3.45,0.9160888944238017,0.0,0.4009752330423622,-0.0,1.0,0.0,0.2,1.0,1.0, 1.0
380,0.0228,0.132,3.45,0.132,3.45,0.8789342558370267,0.0,0.47694294618561234,-0.0,1.0,0.0,0.2,1.0,1.0, 1.0
381,0.0228,0.132,3.45,0.132,3.45,0.8377451254168576,0.0,0.5460614478612216,-0.0,1.0,0.0,0.2,1.0,1.0, 1.0
382,0.0228,0.132,3.45,0.132,3.45,0.7939931645013392,0.0,0.6079266853208121,-0.0,1.0,0.0,0.2,1.0,1.0, 1.0
383,0.0228,0.132,3.45,0.132,3.45,0.7494773822232759,0.0,0.6620299491229574,-0.0,1.0,0.0,0.2,1.0,1.0, 1.0
384,0.0228,0.132,3.45,0.132,3.45,0.7072629114254866,0.0,0.7069506164662028,-0.0,1.0,0.0,0.2,1.0,1.0, 1.0
385,0.0228,0.132,3.45,0.132,3.45,0.6723904533932802,0.0,0.7401966483209574,-0.0,1.0,0.0,0.2,1.0,1.0, 1.0
386,0.0228,0.132,3.45,0.132,3.45,0.9985415483296521,0.0,0.05398866787966885,-0.0,1.0,0.0,0.2,1.0,1.0, 1.0
387,0.0228,0.132,3.45,0.132,3.45,0.9871290794697586,0.0,0.15992554663088393,-0.0,1.0,0.0,0.2,1.0,1.0, 1.0
388,0.0228,0.132,3.45,0.132,3.45,0.9651934285832716,0.0,0.2615370823031961,-0.0,1.0,0.0,0.2,1.0,1.0, 1.0
389,0.0228,0.132,3.45,0.132,3.45,0.9340947631922346,0.0,0.35702517190926925,-0.0,1.0,0.0,0.2,1.0,1.0, 1.0
390,0.0228,0.132,3.45,0.132,3.45,0.8956475224904017,0.0,0.4447645618265975,-0.0,1.0,0.0,0.2,1.0,1.0, 1.0
391,0.0228,0.132,3.45,0.132,3.45,0.8518794292532641,0.0,0.5237379478471395,-0.0,1.0,0.0,0.2,1.0,1.0, 1.0
392,0.0228,0.132,3.45,0.132,3.45,0.804737219859964,0.0,0.5936312045134217,-0.0,1.0,0.0,0.2,1.0,1.0, 1.0
393,0.0228,0.132,3.45,0.132,3.45,0.7560192440695342,0.0,0.654549388966585,-0.0,1.0,0.0,0.2,1.0,1.0, 1.0
394,0.0228,0.132,3.45,0.132,3.45,0.7076497159281449,0.0,0.7065634292452561,-0.0,1.0,0.0,0.2,1.0,1.0, 1.0
395,0.0228,0.132,3.45,0.132,3.45,0.662638234994214,0.0,0.748939630092942,-0.0,1.0,0.0,0.2,1.0,1.0, 1.0
396,0.0228,0.132,3.45,0.132,3.45,0.6256184281929364,0.0,0.7801292087246827,-0.0,1.0,0.0,0.2,1.0,1.0, 1.0
397,0.0228,0.132,3.45,0.132,3.45,0.9980495209142705,0.0,0.06242718800967469,-0.0,1.0,0.0,0.2,1.0,1.0, 1.0
398,0.0228,0.132,3.45,0.132,3.45,0.9829454690898888,0.0,0.1838972669608184,-0.0,1.0,0.0,0.2,1.0,1.0, 1.0
399,0.0228,0.132,3.45,0.132,3.45,0.9544938130330349,0.0,0.29823071753536334,-0.0,1.0,0.0,0.2,1.0,1.0, 1.0
400,0.0228,0.132,3.45,0.132,3.45,0.9152416720231246,0.0,0.4029053012710494,-0.0,1.0,0.0,0.2,1.0,1.0, 1.0
401,0.0228,0.132,3.45,0.132,3.45,0.8682335732136877,0.0,0.49615568357582274,-0.0,1.0,0.0,0.2,1.0,1.0, 1.0
402,0.0228,0.132,3.45,0.132,3.45,0.8164995361227706,0.0,0.5773460898900246,-0.0,1.0,0.0,0.2,1.0,1.0, 1.0
403,0.0228,0.132,3.45,0.132,3.45,0.7626127068634141,0.0,0.6468553619863224,-0.0,1.0,0.0,0.2,1.0,1.0, 1.0
404,0.0228,0.132,3.45,0.132,3.45,0.7086292536838654,0.0,0.7055810235709631,-0.0,1.0,0.0,0.2,1.0,1.0, 1.0
405,0.0228,0.132,3.45,0.132,3.45,0.6564818014002591,0.0,0.7543418617777159,-0.0,1.0,0.0,0.2,1.0,1.0, 1.0
406,0.0228,0.132,3.45,0.132,3.45,0.6089986289451014,0.0,0.7931712740278652,-0.0,1.0,0.0,0.2,1.0,1.0, 1.0
407,0.0228,0.132,3.45,0.132,3.45,0.5704236266727831,0.0,0.8213506474907469,-0.0,1.0,0.0,0.2,1.0,1.0, 1.0
408,0.0228,0.132,3.45,0.132,3.45,0.9973239618861415,0.0,0.07310892591011196,-0.0,1.0,0.0,0.2,1.0,1.0, 1.0
409,0.0228,0.132,3.45,0.132,3.45,0.9768825133032508,0.0,0.21377688182383994,-0.0,1.0,0.0,0.2,1.0,1.0, 1.0
410,0.0228,0.132,3.45,0.132,3.45,0.9394015898148166,0.0,0.342818688308259,-0.0,1.0,0.0,0.2,1.0,1.0, 1.0
411,0.0228,0.132,3.45,0.132,3.45,0.8895030602713594,0.0,0.4569292130821647,-0.0,1.0,0.0,0.2,1.0,1.0, 1.0
412,0.0228,0.132,3.45,0.132,3.45,0.8320845979174231,0.0,0.554648737408281,-0.0,1.0,0.0,0.2,1.0,1.0, 1.0
413,0.0228,0.132,3.45,0.132,3.45,0.7714164224843868,0.0,0.6363306554939734,-0.0,1.0,0.0,0.2,1.0,1.0, 1.0
414,0.0228,0.132,3.45,0.132,3.45,0.7106301175772034,0.0,0.703565800755132,-0.0,1.0,0.0,0.2,1.0,1.0, 1.0
415,0.0228,0.132,3.45,0.132,3.45,0.6518241716433208,0.0,0.7583701268256146,-0.0,1.0,0.0,0.2,1.0,1.0, 1.0
416,0.0228,0.132,3.45,0.132,3.45,0.5967125917955155,0.0,0.8024550347481647,-0.0,1.0,0.0,0.2,1.0,1.0, 1.0
417,0.0228,0.132,3.45,0.132,3.45,0.547731832530007,0.0,0.8366539545315735,-0.0,1.0,0.0,0.2,1.0,1.0, 1.0
418,0.0228,0.132,3.45,0.132,3.45,0.5085888410505894,0.0,0.8610095183903709,-0.0,1.0,0.0,0.2,1.0,1.0, 1.0
419,0.0228,0.132,3.45,0.132,3.45,0.996189072831698,0.0,0.08722001588352254,-0.0,1.0,0.0,0.2,1.0,1.0, 1.0
420,0.0228,0.132,3.45,0.132,3.45,0.9676277388175039,0.0,0.2523817724617302,-0.0,1.0,0.0,0.2,1.0,1.0, 1.0
421,0.0228,0.132,3.45,0.132,3.45,0.9172481588130247,0.0,0.39831622507012726,-0.0,1.0,0.0,0.2,1.0,1.0, 1.0
422,0.0228,0.132,3.45,0.132,3.45,0.8534482945257983,0.0,0.5211775211681775,-0.0,1.0,0.0,0.2,1.0,1.0, 1.0
423,0.0228,0.132,3.45,0.132,3.45,0.7838270638084033,0.0,0.620979173597229,-0.0,1.0,0.0,0.2,1.0,1.0, 1.0
424,0.0228,0.132,3.45,0.132,3.45,0.7138926787715107,0.0,0.7002551272189561,-0.0,1.0,0.0,0.2,1.0,1.0, 1.0
425,0.0228,0.132,3.45,0.132,3.45,0.6469273836693404,0.0,0.762551611537699,-0.0,1.0,0.0,0.2,1.0,1.0, 1.0
426,0.0228,0.132,3.45,0.132,3.45,0.5846513141411132,0.0,0.8112846854668646,-0.0,1.0,0.0,0.2,1.0,1.0, 1.0
427,0.0228,0.132,3.45,0.132,3.45,0.5281862314557982,0.0,0.8491285561683354,-0.0,1.0,0.0,0.2,1.0,1.0, 1.0
428,0.0228,0.132,3.45,0.132,3.45,0.47930025637777596,0.0,0.877650992272098,-0.0,1.0,0.0,0.2,1.0,1.0, 1.0
429,0.0228,0.132,3.45,0.132,3.45,0.44096503958036776,0.0,0.8975242803779098,-0.0,1.0,0.0,0.2,1.0,1.0, 1.0
430,0.0228,0.132,3.45,0.132,3.45,0.9942391207951151,0.0,0.1071847502238854,-0.0,1.0,0.0,0.2,1.0,1.0, 1.0
431,0.0228,0.132,3.45,0.132,3.45,0.9523206227140193,0.0,0.3050990520365188,-0.0,1.0,0.0,0.2,1.0,1.0, 1.0
432,0.0228,0.132,3.45,0.132,3.45,0.8827182098200206,0.0,0.46990271551900814,-0.0,1.0,0.0,0.2,1.0,1.0, 1.0
433,0.0228,0.132,3.45,0.132,3.45,0.8009149947289862,0.0,0.5987780650777614,-0.0,1.0,0.0,0.2,1.0,1.0, 1.0
434,0.0228,0.132,3.45,0.132,3.45,0.7180071310213143,0.0,0.696035746066638,-0.0,1.0,0.0,0.2,1.0,1.0, 1.0
435,0.0228,0.132,3.45,0.132,3.45,0.6399056472771321,0.0,0.768453487585836,-0.0,1.0,0.0,0.2,1.0,1.0, 1.0
436,0.0228,0.132,3.45,0.132,3.45,0.5689638157259334,0.0,0.8223625577533222,-0.0,1.0,0.0,0.2,1.0,1.0, 1.0
437,0.0228,0.132,3.45,0.132,3.45,0.5057982122990543,0.0,0.8626518234114391,-0.0,1.0,0.0,0.2,1.0,1.0, 1.0
438,0.0228,0.132,3.45,0.132,3.45,0.45051372858897387,0.0,0.892769500124674,-0.0,1.0,0.0,0.2,1.0,1.0, 1.0
439,0.0228,0.132,3.45,0.132,3.45,0.40396877518712615,0.0,0.9147727743400615,-0.0,1.0,0.0,0.2,1.0,1.0, 1.0
440,0.0228,0.132,3.45,0.132,3.45,0.3682009621013369,0.0,0.9297462296280905,-0.0,1.0,0.0,0.2,1.0,1.0, 1.0
441,0.0228,0.132,3.45,0.132,3.45,0.9904033977527325,0.0,0.13820676437802387,-0.0,1.0,0.0,0.2,1.0,1.0, 1.0
442,0.0228,0.132,3.45,0.132,3.45,0.9240977250645103,0.0,0.38215624361064243,-0.0,1.0,0.0,0.2,1.0,1.0, 1.0
443,0.0228,0.132,3.45,0.132,3.45,0.8248284733342894,0.0,0.5653830467718548,-0.0,1.0,0.0,0.2,1.0,1.0, 1.0
444,0.0228,0.132,3.45,0.132,3.45,0.7212003449924987,0.0,0.6927265422825234,-0.0,1.0,0.0,0.2,1.0,1.0, 1.0
445,0.0228,0.132,3.45,0.132,3.45,0.6265185282456388,0.0,0.7794065266373632,-0.0,1.0,0.0,0.2,1.0,1.0, 1.0
446,0.0228,0.132,3.45,0.132,3.45,0.544293629260805,0.0,0.8388947759678216,-0.0,1.0,0.0,0.2,1.0,1.0, 1.0
447,0.0228,0.132,3.45,0.132,3.45,0.4740317705810619,0.0,0.8805077401589287,-0.0,1.0,0.0,0.2,1.0,1.0, 1.0
448,0.0228,0.132,3.45,0.132,3.45,0.414170487982134,0.0,0.9101993226127126,-0.0,1.0,0.0,0.2,1.0,1.0, 1.0
449,0.0228,0.132,3.45,0.132,3.45,0.3636168174219621,0.0,0.931548608548112,-0.0,1.0,0.0,0.2,1.0,1.0, 1.0
450,0.0228,0.132,3.45,0.132,3.45,0.32222396591908037,0.0,0.9466634649057601,-0.0,1.0,0.0,0.2,1.0,1.0, 1.0
451,0.0228,0.132,3.45,0.132,3.45,0.2910557688228305,0.0,0.9567060883233423,-0.0,1.0,0.0,0.2,1.0,1.0, 1.0
452,0.0228,0.132,3.45,0.132,3.45,0.9811812378575133,0.0,0.19308904286985817,-0.0,1.0,0.0,0.2,1.0,1.0, 1.0
453,0.0228,0.132,3.45,0.132,3.45,0.8644113719980072,0.0,0.5027852224961696,-0.0,1.0,0.0,0.2,1.0,1.0, 1.0
454,0.0228,0.132,3.45,0.132,3.45,0.7209648971235884,0.0,0.6929715846379082,-0.0,1.0,0.0,0.2,1.0,1.0, 1.0
455,0.0228,0.132,3.45,0.132,3.45,0.5971415867503918,0.0,0.8021358521928966,-0.0,1.0,0.0,0.2,1.0,1.0, 1.0
456,0.0228,0.132,3.45,0.132,3.45,0.49918399516754813,0.0,0.8664960120903991,-0.0,1.0,0.0,0.2,1.0,1.0, 1.0
457,0.0228,0.132,3.45,0.132,3.45,0.4219654566526109,0.0,0.9066119089180075,-0.0,1.0,0.0,0.2,1.0,1.0, 1.0
458,0.0228,0.132,3.45,0.132,3.45,0.3599313832052398,0.0,0.9329787775635429,-0.0,1.0,0.0,0.2,1.0,1.0, 1.0
459,0.0228,0.132,3.45,0.132,3.45,0.3093823926744109,0.0,0.9509377135770021,-0.0,1.0,0.0,0.2,1.0,1.0, 1.0
460,0.0228,0.132,3.45,0.132,3.45,0.2679675805560733,0.0,0.9634279297233003,-0.0,1.0,0.0,0.2,1.0,1.0, 1.0
461,0.0228,0.132,3.45,0.132,3.45,0.23490564205474332,0.0,0.9720181784981434,-0.0,1.0,0.0,0.2,1.0,1.0, 1.0
462,0.0228,0.132,3.45,0.132,3.45,0.21046966686425628,0.0,0.9776003883643097,-0.0,1.0,0.0,0.2,1.0,1.0, 1.0
463,0.0228,0.132,3.45,0.132,3.45,0.9496142892524069,0.0,0.3134209655521567,-0.0,1.0,0.0,0.2,1.0,1.0, 1.0
464,0.0228,0.132,3.45,0.132,3.45,0.7166853199756013,0.0,0.6973966963869773,-0.0,1.0,0.0,0.2,1.0,1.0, 1.0
465,0.0228,0.132,3.45,0.132,3.45,0.5290529341603611,0.0,0.8485888243762774,-0.0,1.0,0.0,0.2,1.0,1.0, 1.0
466,0.0228,0.132,3.45,0.132,3.45,0.40842510502223156,0.0,0.9127918347507165,-0.0,1.0,0.0,0.2,1.0,1.0, 1.0
467,0.0228,0.132,3.45,0.132,3.45,0.327977670223565,0.0,0.9446854756132977,-0.0,1.0,0.0,0.2,1.0,1.0, 1.0
468,0.0228,0.132,3.45,0.132,3.45,0.27043112048527623,0.0,0.9627393256084836,-0.0,1.0,0.0,0.2,1.0,1.0, 1.0
469,0.0228,0.132,3.45,0.132,3.45,0.2267251026794871,0.0,0.973958791641092,-0.0,1.0,0.0,0.2,1.0,1.0, 1.0
470,0.0228,0.132,3.45,0.132,3.45,0.192270740763074,0.0,0.9813419191323779,-0.0,1.0,0.0,0.2,1.0,1.0, 1.0
471,0.0228,0.132,3.45,0.132,3.45,0.16473457311650033,0.0,0.9863379341889495,-0.0,1.0,0.0,0.2,1.0,1.0, 1.0
472,0.0228,0.132,3.45,0.132,3.45,0.14315208203380417,0.0,0.9897007029447776,-0.0,1.0,0.0,0.2,1.0,1.0, 1.0
473,0.0228,0.132,3.45,0.132,3.45,0.12743634607900065,0.0,0.9918467511153288,-0.0,1.0,0.0,0.2,1.0,1.0, 1.0
474,0.0228,0.132,3.45,0.132,3.45,0.7103796821456478,0.0,0.7038186607320441,-0.0,1.0,0.0,0.2,1.0,1.0, 1.0
475,0.0228,0.132,3.45,0.132,3.45,0.3243001851130282,0.0,0.9459542219027597,-0.0,1.0,0.0,0.2,1.0,1.0, 1.0
476,0.0228,0.132,3.45,0.132,3.45,0.20379543713584747,0.0,0.9790134931667738,-0.0,1.0,0.0,0.2,1.0,1.0, 1.0
477,0.0228,0.132,3.45,0.132,3.45,0.14819160704696588,0.0,0.9889586682975369,-0.0,1.0,0.0,0.2,1.0,1.0, 1.0
478,0.0228,0.132,3.45,0.132,3.45,0.11566101340106166,0.0,0.9932887445144234,-0.0,1.0,0.0,0.2,1.0,1.0, 1.0
479,0.0228,0.132,3.45,0.132,3.45,0.09386442388300507,0.0,0.9955849888026193,-0.0,1.0,0.0,0.2,1.0,1.0, 1.0
480,0.0228,0.132,3.45,0.132,3.45,0.07796123680441583,0.0,0.9969563910000907,-0.0,1.0,0.0,0.2,1.0,1.0, 1.0
481,0.0228,0.132,3.45,0.132,3.45,0.06552749082643819,0.0,0.9978507643660904,-0.0,1.0,0.0,0.2,1.0,1.0, 1.0
482,0.0228,0.132,3.45,0.132,3.45,0.0557810800371382,0.0,0.998443023466983,-0.0,1.0,0.0,0.2,1.0,1.0, 1.0
483,0.0228,0.132,3.45,0.132,3.45,0.04821094298050777,0.0,0.9988371764091133,-0.0,1.0,0.0,0.2,1.0,1.0, 1.0
484,0.0228,0.132,3.45,0.132,3.45,0.042751683086893734,0.0,0.9990857288507516,-0.0,1.0,0.0,0.2,1.0,1.0, 1.0
485,0.0228,0.132,3.45,0.132,3.45,0.999094317896802,0.0,0.042550487028048437,-0.0,1.0,0.0,0.2,1.0,1.0, 1.0
486,0.0228,0.132,3.45,0.132,3.45,0.9918790871584237,0.0,0.1271844190841472,-0.0,1.0,0.0,0.2,1.0,1.0, 1.0
487,0.0228,0.132,3.45,0.132,3.45,0.9776286764979427,0.0,0.21033822973696586,-0.0,1.0,0.0,0.2,1.0,1.0, 1.0
488,0.0228,0.132,3.45,0.132,3.45,0.9566671207337384,0.0,0.2911838252839931,-0.0,1.0,0.0,0.2,1.0,1.0, 1.0
489,0.0228,0.132,3.45,0.132,3.45,0.9295282781635074,0.0,0.368750837415165,-0.0,1.0,0.0,0.2,1.0,1.0, 1.0
490,0.0228,0.132,3.45,0.132,3.45,0.8969921611970069,0.0,0.4420464486353473,-0.0,1.0,0.0,0.2,1.0,1.0, 1.0
491,0.0228,0.132,3.45,0.132,3.45,0.8600775993571046,0.0,0.5101632318034294,-0.0,1.0,0.0,0.2,1.0,1.0, 1.0
492,0.0228,0.132,3.45,0.132,3.45,0.8200805228634565,0.0,0.5722481419978573,-0.0,1.0,0.0,0.2,1.0,1.0, 1.0
493,0.0228,0.132,3.45,0.132,3.45,0.7788565773663313,0.0,0.62720206623799,-0.0,1.0,0.0,0.2,1.0,1.0, 1.0
494,0.0228,0.132,3.45,0.132,3.45,0.7394860478246835,0.0,0.6731718837508218,-0.0,1.0,0.0,0.2,1.0,1.0, 1.0
495,0.0228,0.132,3.45,0.132,3.45,0.7071715092920164,0.0,0.7070420471553664,-0.0,1.0,0.0,0.2,1.0,1.0, 1.0
496,0.0228,0.132,3.45,0.132,3.45,0.9988810475436064,0.0,0.04729326440612291,-0.0,1.0,0.0,0.2,1.0,1.0, 1.0
497,0.0228,0.132,3.45,0.132,3.45,0.9900098683100561,0.0,0.1409980873937843,-0.0,1.0,0.0,0.2,1.0,1.0, 1.0
498,0.0228,0.132,3.45,0.132,3.45,0.9726894182548559,0.0,0.2321105245675644,-0.0,1.0,0.0,0.2,1.0,1.0, 1.0
499,0.0228,0.132,3.45,0.132,3.45,0.9476200856057634,0.0,0.31939970782160354,-0.0,1.0,0.0,0.2,1.0,1.0, 1.0
500,0.0228,0.132,3.45,0.132,3.45,0.9157848302165073,0.0,0.40166919815355895,-0.0,1.0,0.0,0.2,1.0,1.0, 1.0
501,0.0228,0.132,3.45,0.132,3.45,0.8784271598560373,0.0,0.47787626518509596,-0.0,1.0,0.0,0.2,1.0,1.0, 1.0
502,0.0228,0.132,3.45,0.132,3.45,0.8369684735474413,0.0,0.5472511071598358,-0.0,1.0,0.0,0.2,1.0,1.0, 1.0
503,0.0228,0.132,3.45,0.132,3.45,0.7930385370291854,0.0,0.6091714691173656,-0.0,1.0,0.0,0.2,1.0,1.0, 1.0
504,0.0228,0.132,3.45,0.132,3.45,0.7487594616182157,0.0,0.6628418126802199,-0.0,1.0,0.0,0.2,1.0,1.0, 1.0
505,0.0228,0.132,3.45,0.132,3.45,0.7073561954196707,0.0,0.7068572789477439,-0.0,1.0,0.0,0.2,1.0,1.0, 1.0
506,0.0228,0.132,3.45,0.132,3.45,0.6734391156826869,0.0,0.7392426918600687,-0.0,1.0,0.0,0.2,1.0,1.0, 1.0
507,0.0228,0.132,3.45,0.132,3.45,0.998555226501715,0.0,0.05373508747651431,-0.0,1.0,0.0,0.2,1.0,1.0, 1.0
508,0.0228,0.132,3.45,0.132,3.45,0.9871776064127603,0.0,0.1596257291202556,-0.0,1.0,0.0,0.2,1.0,1.0, 1.0
509,0.0228,0.132,3.45,0.132,3.45,0.9652986592776824,0.0,0.26114842216009787,-0.0,1.0,0.0,0.2,1.0,1.0, 1.0
510,0.0228,0.132,3.45,0.132,3.45,0.9342981508175113,0.0,0.3564925881122615,-0.0,1.0,0.0,0.2,1.0,1.0, 1.0
511,0.0228,0.132,3.45,0.132,3.45,0.895913869366404,0.0,0.44422780043229804,-0.0,1.0,0.0,0.2,1.0,1.0, 1.0
512,0.0228,0.132,3.45,0.132,3.45,0.8520855778696951,0.0,0.5234024913835125,-0.0,1.0,0.0,0.2,1.0,1.0, 1.0
513,0.0228,0.132,3.45,0.132,3.45,0.8047650669111899,0.0,0.5935934526925208,-0.0,1.0,0.0,0.2,1.0,1.0, 1.0
514,0.0228,0.132,3.45,0.132,3.45,0.7559358735268193,0.0,0.6546456714248133,-0.0,1.0,0.0,0.2,1.0,1.0, 1.0
515,0.0228,0.132,3.45,0.132,3.45,0.7078832365350148,0.0,0.7063294722951265,-0.0,1.0,0.0,0.2,1.0,1.0, 1.0
516,0.0228,0.132,3.45,0.132,3.45,0.663768967742262,0.0,0.7479376695035302,-0.0,1.0,0.0,0.2,1.0,1.0, 1.0
517,0.0228,0.132,3.45,0.132,3.45,0.6276866233685225,0.0,0.7784661218346132,-0.0,1.0,0.0,0.2,1.0,1.0, 1.0
518,0.0228,0.132,3.45,0.132,3.45,0.9980748587427958,0.0,0.06202077350008,-0.0,1.0,0.0,0.2,1.0,1.0, 1.0
519,0.0228,0.132,3.45,0.132,3.45,0.9830452146014462,0.0,0.18336331707622566,-0.0,1.0,0.0,0.2,1.0,1.0, 1.0
520,0.0228,0.132,3.45,0.132,3.45,0.9547094428956107,0.0,0.2975397110403123,-0.0,1.0,0.0,0.2,1.0,1.0, 1.0
521,0.0228,0.132,3.45,0.132,3.45,0.9156520334445394,0.0,0.40197183190974983,-0.0,1.0,0.0,0.2,1.0,1.0, 1.0
522,0.0228,0.132,3.45,0.132,3.45,0.8688110417246601,0.0,0.49514379101157185,-0.0,1.0,0.0,0.2,1.0,1.0, 1.0
523,0.0228,0.132,3.45,0.132,3.45,0.8170943076099749,0.0,0.5765040264138455,-0.0,1.0,0.0,0.2,1.0,1.0, 1.0
524,0.0228,0.132,3.45,0.132,3.45,0.7630796164037436,0.0,0.6463044940499142,-0.0,1.0,0.0,0.2,1.0,1.0, 1.0
525,0.0228,0.132,3.45,0.132,3.45,0.7090280897152934,0.0,0.7051802379496195,-0.0,1.0,0.0,0.2,1.0,1.0, 1.0
526,0.0228,0.132,3.45,0.132,3.45,0.6572502012288706,0.0,0.7536724573610272,-0.0,1.0,0.0,0.2,1.0,1.0, 1.0
527,0.0228,0.132,3.45,0.132,3.45,0.6107153586742423,0.0,0.7918502072231789,-0.0,1.0,0.0,0.2,1.0,1.0, 1.0
528,0.0228,0.132,3.45,0.132,3.45,0.5730430679414624,0.0,0.8195252542077252,-0.0,1.0,0.0,0.2,1.0,1.0, 1.0
529,0.0228,0.132,3.45,0.132,3.45,0.9973591013711157,0.0,0.07262797609874909,-0.0,1.0,0.0,0.2,1.0,1.0, 1.0
530,0.0228,0.132,3.45,0.132,3.45,0.976966701873226,0.0,0.21339180731919188,-0.0,1.0,0.0,0.2,1.0,1.0, 1.0
531,0.0228,0.132,3.45,0.132,3.45,0.9395255634821156,0.0,0.34247878118740904,-0.0,1.0,0.0,0.2,1.0,1.0, 1.0
532,0.0228,0.132,3.45,0.132,3.45,0.889773239776489,0.0,0.4564028722276519,-0.0,1.0,0.0,0.2,1.0,1.0, 1.0
533,0.0228,0.132,3.45,0.132,3.45,0.8325143489649525,0.0,0.5540034826311668,-0.0,1.0,0.0,0.2,1.0,1.0, 1.0
534,0.0228,0.132,3.45,0.132,3.45,0.7718800348397175,0.0,0.6357682060435521,-0.0,1.0,0.0,0.2,1.0,1.0, 1.0
535,0.0228,0.132,3.45,0.132,3.45,0.711001999432762,0.0,0.7031899862786835,-0.0,1.0,0.0,0.2,1.0,1.0, 1.0
536,0.0228,0.132,3.45,0.132,3.45,0.652184347430536,0.0,0.7580604045632552,-0.0,1.0,0.0,0.2,1.0,1.0, 1.0
537,0.0228,0.132,3.45,0.132,3.45,0.5975100319061638,0.0,0.8018614355183165,-0.0,1.0,0.0,0.2,1.0,1.0, 1.0
538,0.0228,0.132,3.45,0.132,3.45,0.5495431890031018,0.0,0.8354653095253572,-0.0,1.0,0.0,0.2,1.0,1.0, 1.0
539,0.0228,0.132,3.45,0.132,3.45,0.5113245610870636,0.0,0.8593876850578683,-0.0,1.0,0.0,0.2,1.0,1.0, 1.0
540,0.0228,0.132,3.45,0.132,3.45,0.9962351422398745,0.0,0.08669222206344097,-0.0,1.0,0.0,0.2,1.0,1.0, 1.0
541,0.0228,0.132,3.45,0.132,3.45,0.9676095550219725,0.0,0.2524514785660412,-0.0,1.0,0.0,0.2,1.0,1.0, 1.0
542,0.0228,0.132,3.45,0.132,3.45,0.9170149907731308,0.0,0.39885273810938676,-0.0,1.0,0.0,0.2,1.0,1.0, 1.0
543,0.0228,0.132,3.45,0.132,3.45,0.8531511873906394,0.0,0.5216637340796674,-0.0,1.0,0.0,0.2,1.0,1.0, 1.0
544,0.0228,0.132,3.45,0.132,3.45,0.7836033082736074,0.0,0.6212615031230069,-0.0,1.0,0.0,0.2,1.0,1.0, 1.0
545,0.0228,0.132,3.45,0.132,3.45,0.7137306945870804,0.0,0.7004202278662744,-0.0,1.0,0.0,0.2,1.0,1.0, 1.0
546,0.0228,0.132,3.45,0.132,3.45,0.6467702754616264,0.0,0.7626848699032204,-0.0,1.0,0.0,0.2,1.0,1.0, 1.0
547,0.0228,0.132,3.45,0.132,3.45,0.5846130952512761,0.0,0.8113122264952762,-0.0,1.0,0.0,0.2,1.0,1.0, 1.0
548,0.0228,0.132,3.45,0.132,3.45,0.5287163715354672,0.0,0.8487985617744471,-0.0,1.0,0.0,0.2,1.0,1.0, 1.0
549,0.0228,0.132,3.45,0.132,3.45,0.4809345524849385,0.0,0.8767564976811475,-0.0,1.0,0.0,0.2,1.0,1.0, 1.0
550,0.0228,0.132,3.45,0.132,3.45,0.4435752922070166,0.0,0.8962371115633742,-0.0,1.0,0.0,0.2,1.0,1.0, 1.0
551,0.0228,0.132,3.45,0.132,3.45,0.9943039705258192,0.0,0.10658149087243442,-0.0,1.0,0.0,0.2,1.0,1.0, 1.0
552,0.0228,0.132,3.45,0.132,3.45,0.9520832679123062,0.0,0.3058389297676535,-0.0,1.0,0.0,0.2,1.0,1.0, 1.0
553,0.0228,0.132,3.45,0.132,3.45,0.8817898648100915,0.0,0.47164248570098144,-0.0,1.0,0.0,0.2,1.0,1.0, 1.0
554,0.0228,0.132,3.45,0.132,3.45,0.7995878014918726,0.0,0.600549205065991,-0.0,1.0,0.0,0.2,1.0,1.0, 1.0
555,0.0228,0.132,3.45,0.132,3.45,0.7166446424867605,0.0,0.6974384964963026,-0.0,1.0,0.0,0.2,1.0,1.0, 1.0
556,0.0228,0.132,3.45,0.132,3.45,0.6387033266003762,0.0,0.7694530918708515,-0.0,1.0,0.0,0.2,1.0,1.0, 1.0
557,0.0228,0.132,3.45,0.132,3.45,0.5680043398186752,0.0,0.8230255585017703,-0.0,1.0,0.0,0.2,1.0,1.0, 1.0
558,0.0228,0.132,3.45,0.132,3.45,0.5052140177077644,0.0,0.8629940882251621,-0.0,1.0,0.0,0.2,1.0,1.0, 1.0
559,0.0228,0.132,3.45,0.132,3.45,0.4506913045385075,0.0,0.8926798687174357,-0.0,1.0,0.0,0.2,1.0,1.0, 1.0
560,0.0228,0.132,3.45,0.132,3.45,0.405335265440042,0.0,0.9141681041201616,-0.0,1.0,0.0,0.2,1.0,1.0, 1.0
561,0.0228,0.132,3.45,0.132,3.45,0.3705674280228495,0.0,0.9288055669991057,-0.0,1.0,0.0,0.2,1.0,1.0, 1.0
562,0.0228,0.132,3.45,0.132,3.45,0.9905143766782737,0.0,0.13740913213338932,-0.0,1.0,0.0,0.2,1.0,1.0, 1.0
563,0.0228,0.132,3.45,0.132,3.45,0.9235168916120824,0.0,0.3835577543306316,-0.0,1.0,0.0,0.2,1.0,1.0, 1.0
564,0.0228,0.132,3.45,0.132,3.45,0.8228927277651295,0.0,0.568196760454743,-0.0,1.0,0.0,0.2,1.0,1.0, 1.0
565,0.0228,0.132,3.45,0.132,3.45,0.7184774618984456,0.0,0.6955502402731002,-0.0,1.0,0.0,0.2,1.0,1.0, 1.0
566,0.0228,0.132,3.45,0.132,3.45,0.6237519740190228,0.0,0.7816223352152702,-0.0,1.0,0.0,0.2,1.0,1.0, 1.0
567,0.0228,0.132,3.45,0.132,3.45,0.5419102035055718,0.0,0.8404363933912844,-0.0,1.0,0.0,0.2,1.0,1.0, 1.0
568,0.0228,0.132,3.45,0.132,3.45,0.47219554185962553,0.0,0.8814938288200858,-0.0,1.0,0.0,0.2,1.0,1.0, 1.0
569,0.0228,0.132,3.45,0.132,3.45,0.4130682903058232,0.0,0.9107000535543105,-0.0,1.0,0.0,0.2,1.0,1.0, 1.0
570,0.0228,0.132,3.45,0.132,3.45,0.36348550471371416,0.0,0.9315998539410666,-0.0,1.0,0.0,0.2,1.0,1.0, 1.0
571,0.0228,0.132,3.45,0.132,3.45,0.3233116547169023,0.0,0.9462925414078981,-0.0,1.0,0.0,0.2,1.0,1.0, 1.0
572,0.0228,0.132,3.45,0.132,3.45,0.29310046428666503,0.0,0.9560816481006951,-0.0,1.0,0.0,0.2,1.0,1.0, 1.0
573,0.0228,0.132,3.45,0.132,3.45,0.9814242006041233,0.0,0.19185030223733737,-0.0,1.0,0.0,0.2,1.0,1.0, 1.0
574,0.0228,0.132,3.45,0.132,3.45,0.8633687513964879,0.0,0.5045734823710709,-0.0,1.0,0.0,0.2,1.0,1.0, 1.0
575,0.0228,0.132,3.45,0.132,3.45,0.7178458128534767,0.0,0.6962021179002054,-0.0,1.0,0.0,0.2,1.0,1.0, 1.0
576,0.0228,0.132,3.45,0.132,3.45,0.5931904901022635,0.0,0.8050621357710449,-0.0,1.0,0.0,0.2,1.0,1.0, 1.0
577,0.0228,0.132,3.45,0.132,3.45,0.4953099918264425,0.0,0.8687163012151259,-0.0,1.0,0.0,0.2,1.0,1.0, 1.0
578,0.0228,0.132,3.45,0.132,3.45,0.4186865441420537,0.0,0.908130815331351,-0.0,1.0,0.0,0.2,1.0,1.0, 1.0
579,0.0228,0.132,3.45,0.132,3.45,0.3575434641557997,0.0,0.9338964992114868,-0.0,1.0,0.0,0.2,1.0,1.0, 1.0
580,0.0228,0.132,3.45,0.132,3.45,0.30794215200885483,0.0,0.9514050825048999,-0.0,1.0,0.0,0.2,1.0,1.0, 1.0
581,0.0228,0.132,3.45,0.132,3.45,0.26761532890409284,0.0,0.9635258355309183,-0.0,1.0,0.0,0.2,1.0,1.0, 1.0
582,0.0228,0.132,3.45,0.132,3.45,0.23568759867132755,0.0,0.9718288716808857,-0.0,1.0,0.0,0.2,1.0,1.0, 1.0
583,0.0228,0.132,3.45,0.132,3.45,0.212076120877363,0.0,0.9772531498816518,-0.0,1.0,0.0,0.2,1.0,1.0, 1.0
584,0.0228,0.132,3.45,0.132,3.45,0.9502178339834915,0.0,0.31158637322534166,-0.0,1.0,0.0,0.2,1.0,1.0, 1.0
585,0.0228,0.132,3.45,0.132,3.45,0.7145247865422014,0.0,0.6996101267254653,-0.0,1.0,0.0,0.2,1.0,1.0, 1.0
586,0.0228,0.132,3.45,0.132,3.45,0.5247882987886093,0.0,0.8512327774789675,-0.0,1.0,0.0,0.2,1.0,1.0, 1.0
587,0.0228,0.132,3.45,0.132,3.45,0.4038845886204795,0.0,0.9148099469697879,-0.0,1.0,0.0,0.2,1.0,1.0, 1.0
588,0.0228,0.132,3.45,0.132,3.45,0.3238786245838357,0.0,0.9460986399618609,-0.0,1.0,0.0,0.2,1.0,1.0, 1.0
589,0.0228,0.132,3.45,0.132,3.45,0.26711351895792035,0.0,0.9636650704419647,-0.0,1.0,0.0,0.2,1.0,1.0, 1.0
590,0.0228,0.132,3.45,0.132,3.45,0.22435631405658663,0.0,0.9745071802418607,-0.0,1.0,0.0,0.2,1.0,1.0, 1.0
591,0.0228,0.132,3.45,0.132,3.45,0.19085713521575637,0.0,0.9816178247858147,-0.0,1.0,0.0,0.2,1.0,1.0, 1.0
592,0.0228,0.132,3.45,0.132,3.45,0.16425042730976774,0.0,0.9864186723336894,-0.0,1.0,0.0,0.2,1.0,1.0, 1.0
593,0.0228,0.132,3.45,0.132,3.45,0.14353835798366404,0.0,0.9896447543373095,-0.0,1.0,0.0,0.2,1.0,1.0, 1.0
594,0.0228,0.132,3.45,0.132,3.45,0.12841168693172805,0.0,0.9917209479784864,-0.0,1.0,0.0,0.2,1.0,1.0, 1.0
595,0.0228,0.132,3.45,0.132,3.45,0.7096856564065988,0.0,0.7045184661105308,-0.0,1.0,0.0,0.2,1.0,1.0, 1.0
596,0.0228,0.132,3.45,0.132,3.45,0.31991193997437484,0.0,0.9474472812045174,-0.0,1.0,0.0,0.2,1.0,1.0, 1.0
597,0.0228,0.132,3.45,0.132,3.45,0.19996448585057963,0.0,0.9798031457382209,-0.0,1.0,0.0,0.2,1.0,1.0, 1.0
598,0.0228,0.132,3.45,0.132,3.45,0.14490486438108713,0.0,0.9894455923792367,-0.0,1.0,0.0,0.2,1.0,1.0, 1.0
599,0.0228,0.132,3.45,0.132,3.45,0.11307703098648912,0.0,0.9935862242720964,-0.0,1.0,0.0,0.2,1.0,1.0, 1.0
600,0.0228,0.132,3.45,0.132,3.45,0.09195200732456932,0.0,0.9957634399539794,-0.0,1.0,0.0,0.2,1.0,1.0, 1.0
601,0.0228,0.132,3.45,0.132,3.45,0.07658392905772758,0.0,0.9970631383267966,-0.0,1.0,0.0,0.2,1.0,1.0, 1.0
602,0.0228,0.132,3.45,0.132,3.45,0.06472054407819579,0.0,0.9979034277795734,-0.0,1.0,0.0,0.2,1.0,1.0, 1.0
603,0.0228,0.132,3.45,0.132,3.45,0.05540291788455338,0.0,0.998464078818,-0.0,1.0,0.0,0.2,1.0,1.0, 1.0
604,0.0228,0.132,3.45,0.132,3.45,0.048208448525666574,0.0,0.9988372968060154,-0.0,1.0,0.0,0.2,1.0,1.0, 1.0
605,0.0228,0.132,3.45,0.132,3.45,0.04299166984173669,0.0,0.9990754307479587,-0.0,1.0,0.0,0.2,1.0,1.0, 1.0
606,0.0228,0.132,3.45,0.132,3.45,0.9991275219816553,0.0,0.04176355850256279,-0.0,1.0,0.0,0.2,1.0,1.0, 1.0
607,0.0228,0.132,3.45,0.132,3.45,0.992203875382973,0.0,0.12462531715108964,-0.0,1.0,0.0,0.2,1.0,1.0, 1.0
608,0.0228,0.132,3.45,0.132,3.45,0.9784741940613887,0.0,0.2063692117441838,-0.0,1.0,0.0,0.2,1.0,1.0, 1.0
609,0.0228,0.132,3.45,0.132,3.45,0.9581288019109798,0.0,0.28633756119068676,-0.0,1.0,0.0,0.2,1.0,1.0, 1.0
610,0.0228,0.132,3.45,0.132,3.45,0.9316029255863435,0.0,0.3634776321026726,-0.0,1.0,0.0,0.2,1.0,1.0, 1.0
611,0.0228,0.132,3.45,0.132,3.45,0.8996017731030945,0.0,0.4367111743816139,-0.0,1.0,0.0,0.2,1.0,1.0, 1.0
612,0.0228,0.132,3.45,0.132,3.45,0.8630622188334294,0.0,0.5050976206856628,-0.0,1.0,0.0,0.2,1.0,1.0, 1.0
613,0.0228,0.132,3.45,0.132,3.45,0.8231270390459771,0.0,0.5678572686788489,-0.0,1.0,0.0,0.2,1.0,1.0, 1.0
614,0.0228,0.132,3.45,0.132,3.45,0.7814149789299946,0.0,0.6240117232102583,-0.0,1.0,0.0,0.2,1.0,1.0, 1.0
615,0.0228,0.132,3.45,0.132,3.45,0.740860617439243,0.0,0.67165880142193,-0.0,1.0,0.0,0.2,1.0,1.0, 1.0
616,0.0228,0.132,3.45,0.132,3.45,0.7071508294503692,0.0,0.7070627301786276,-0.0,1.0,0.0,0.2,1.0,1.0, 1.0
617,0.0228,0.132,3.45,0.132,3.45,0.9989133817059381,0.0,0.04660531996250002,-0.0,1.0,0.0,0.2,1.0,1.0, 1.0
618,0.0228,0.132,3.45,0.132,3.45,0.990348115041052,0.0,0.1386023485898967,-0.0,1.0,0.0,0.2,1.0,1.0, 1.0
619,0.0228,0.132,3.45,0.132,3.45,0.9735667915895972,0.0,0.22840250067356482,-0.0,1.0,0.0,0.2,1.0,1.0, 1.0
620,0.0228,0.132,3.45,0.132,3.45,0.9490958414187038,0.0,0.31498743435528115,-0.0,1.0,0.0,0.2,1.0,1.0, 1.0
621,0.0228,0.132,3.45,0.132,3.45,0.9177971118220642,0.0,0.39704969655079364,-0.0,1.0,0.0,0.2,1.0,1.0, 1.0
622,0.0228,0.132,3.45,0.132,3.45,0.880830361935887,0.0,0.47343201570224885,-0.0,1.0,0.0,0.2,1.0,1.0, 1.0
623,0.0228,0.132,3.45,0.132,3.45,0.8395369264393514,0.0,0.5433026312698724,-0.0,1.0,0.0,0.2,1.0,1.0, 1.0
624,0.0228,0.132,3.45,0.132,3.45,0.795387760172897,0.0,0.6061009082381761,-0.0,1.0,0.0,0.2,1.0,1.0, 1.0
625,0.0228,0.132,3.45,0.132,3.45,0.7502562969043288,0.0,0.6611471008447392,-0.0,1.0,0.0,0.2,1.0,1.0, 1.0
626,0.0228,0.132,3.45,0.132,3.45,0.7073319367663955,0.0,0.7068815538902539,-0.0,1.0,0.0,0.2,1.0,1.0, 1.0
627,0.0228,0.132,3.45,0.132,3.45,0.6718744923544423,0.0,0.7406650164031378,-0.0,1.0,0.0,0.2,1.0,1.0, 1.0
628,0.0228,0.132,3.45,0.132,3.45,0.9985826802136719,0.0,0.0532224649680864,-0.0,1.0,0.0,0.2,1.0,1.0, 1.0
629,0.0228,0.132,3.45,0.132,3.45,0.9875046798180488,0.0,0.15758968030125878,-0.0,1.0,0.0,0.2,1.0,1.0, 1.0
630,0.0228,0.132,3.45,0.132,3.45,0.9661422885024888,0.0,0.25800984160914014,-0.0,1.0,0.0,0.2,1.0,1.0, 1.0
631,0.0228,0.132,3.45,0.132,3.45,0.9356559972569956,0.0,0.3529133814366028,-0.0,1.0,0.0,0.2,1.0,1.0, 1.0
632,0.0228,0.132,3.45,0.132,3.45,0.8976459361359722,0.0,0.44071733950296754,-0.0,1.0,0.0,0.2,1.0,1.0, 1.0
633,0.0228,0.132,3.45,0.132,3.45,0.8539752899173542,0.0,0.5203135633544173,-0.0,1.0,0.0,0.2,1.0,1.0, 1.0
634,0.0228,0.132,3.45,0.132,3.45,0.8065257237073553,0.0,0.5911989994902958,-0.0,1.0,0.0,0.2,1.0,1.0, 1.0
635,0.0228,0.132,3.45,0.132,3.45,0.7571409649038366,0.0,0.6532515283292396,-0.0,1.0,0.0,0.2,1.0,1.0, 1.0
636,0.0228,0.132,3.45,0.132,3.45,0.7079043897621006,0.0,0.706308271900838,-0.0,1.0,0.0,0.2,1.0,1.0, 1.0
637,0.0228,0.132,3.45,0.132,3.45,0.6620410267302611,0.0,0.7494675969819787,-0.0,1.0,0.0,0.2,1.0,1.0, 1.0
638,0.0228,0.132,3.45,0.132,3.45,0.6244260180024471,0.0,0.7810839571016727,-0.0,1.0,0.0,0.2,1.0,1.0, 1.0
639,0.0228,0.132,3.45,0.132,3.45,0.9980966482400657,0.0,0.06166912332720968,-0.0,1.0,0.0,0.2,1.0,1.0, 1.0
640,0.0228,0.132,3.45,0.132,3.45,0.983366933031092,0.0,0.18163004988443918,-0.0,1.0,0.0,0.2,1.0,1.0, 1.0
641,0.0228,0.132,3.45,0.132,3.45,0.9555305162727895,0.0,0.29489223874401393,-0.0,1.0,0.0,0.2,1.0,1.0, 1.0
642,0.0228,0.132,3.45,0.132,3.45,0.9168976681512873,0.0,0.3991223698801309,-0.0,1.0,0.0,0.2,1.0,1.0, 1.0
643,0.0228,0.132,3.45,0.132,3.45,0.8702691877096279,0.0,0.4925764315547633,-0.0,1.0,0.0,0.2,1.0,1.0, 1.0
644,0.0228,0.132,3.45,0.132,3.45,0.8184948057873158,0.0,0.5745139275067093,-0.0,1.0,0.0,0.2,1.0,1.0, 1.0
645,0.0228,0.132,3.45,0.132,3.45,0.7640949516027967,0.0,0.6451037939239852,-0.0,1.0,0.0,0.2,1.0,1.0, 1.0
646,0.0228,0.132,3.45,0.132,3.45,0.7092253777658541,0.0,0.7049818178739657,-0.0,1.0,0.0,0.2,1.0,1.0, 1.0
647,0.0228,0.132,3.45,0.132,3.45,0.656037480964305,0.0,0.7547283110961248,-0.0,1.0,0.0,0.2,1.0,1.0, 1.0
648,0.0228,0.132,3.45,0.132,3.45,0.6076433563698473,0.0,0.794210017224403,-0.0,1.0,0.0,0.2,1.0,1.0, 1.0
649,0.0228,0.132,3.45,0.132,3.45,0.5685591825124271,0.0,0.8226423621360625,-0.0,1.0,0.0,0.2,1.0,1.0, 1.0
650,0.0228,0.132,3.45,0.132,3.45,0.9973739930803708,0.0,0.07242318639024772,-0.0,1.0,0.0,0.2,1.0,1.0, 1.0
651,0.0228,0.132,3.45,0.132,3.45,0.9772968468340356,0.0,0.21187466381861583,-0.0,1.0,0.0,0.2,1.0,1.0, 1.0
652,0.0228,0.132,3.45,0.132,3.45,0.9403542004056393,0.0,0.34019696909212854,-0.0,1.0,0.0,0.2,1.0,1.0, 1.0
653,0.0228,0.132,3.45,0.132,3.45,0.8909414376570272,0.0,0.4541182166194499,-0.0,1.0,0.0,0.2,1.0,1.0, 1.0
654,0.0228,0.132,3.45,0.132,3.45,0.833748867313639,0.0,0.5521438456174479,-0.0,1.0,0.0,0.2,1.0,1.0, 1.0
655,0.0228,0.132,3.45,0.132,3.45,0.7728827174198024,0.0,0.6345488989146398,-0.0,1.0,0.0,0.2,1.0,1.0, 1.0
656,0.0228,0.132,3.45,0.132,3.45,0.7114328462815634,0.0,0.702754085887598,-0.0,1.0,0.0,0.2,1.0,1.0, 1.0
657,0.0228,0.132,3.45,0.132,3.45,0.6516327838445264,0.0,0.7585345839307743,-0.0,1.0,0.0,0.2,1.0,1.0, 1.0
658,0.0228,0.132,3.45,0.132,3.45,0.595445825816871,0.0,0.8033954620965098,-0.0,1.0,0.0,0.2,1.0,1.0, 1.0
659,0.0228,0.132,3.45,0.132,3.45,0.5456350535450373,0.0,0.8380229044261883,-0.0,1.0,0.0,0.2,1.0,1.0, 1.0
660,0.0228,0.132,3.45,0.132,3.45,0.5061538833148722,0.0,0.8624431844505903,-0.0,1.0,0.0,0.2,1.0,1.0, 1.0
661,0.0228,0.132,3.45,0.132,3.45,0.9962381406252934,0.0,0.08665775881857489,-0.0,1.0,0.0,0.2,1.0,1.0, 1.0
662,0.0228,0.132,3.45,0.132,3.45,0.9679517057363337,0.0,0.25113640787851177,-0.0,1.0,0.0,0.2,1.0,1.0, 1.0
663,0.0228,0.132,3.45,0.132,3.45,0.9178521189166395,0.0,0.39692252115524385,-0.0,1.0,0.0,0.2,1.0,1.0, 1.0
664,0.0228,0.132,3.45,0.132,3.45,0.8542159528979011,0.0,0.51991836456768,-0.0,1.0,0.0,0.2,1.0,1.0, 1.0
665,0.0228,0.132,3.45,0.132,3.45,0.7845716564186611,0.0,0.6200381568455916,-0.0,1.0,0.0,0.2,1.0,1.0, 1.0
666,0.0228,0.132,3.45,0.132,3.45,0.7143169906415675,0.0,0.6998222894998236,-0.0,1.0,0.0,0.2,1.0,1.0, 1.0
667,0.0228,0.132,3.45,0.132,3.45,0.6466727777715204,0.0,0.7627675389588008,-0.0,1.0,0.0,0.2,1.0,1.0, 1.0
668,0.0228,0.132,3.45,0.132,3.45,0.5834583151762068,0.0,0.8121430874247111,-0.0,1.0,0.0,0.2,1.0,1.0, 1.0
669,0.0228,0.132,3.45,0.132,3.45,0.5260558248558724,0.0,0.8504500391764396,-0.0,1.0,0.0,0.2,1.0,1.0, 1.0
670,0.0228,0.132,3.45,0.132,3.45,0.47655614151660924,0.0,0.8791440405205518,-0.0,1.0,0.0,0.2,1.0,1.0, 1.0
671,0.0228,0.132,3.45,0.132,3.45,0.43811599753041874,0.0,0.8989184460828057,-0.0,1.0,0.0,0.2,1.0,1.0, 1.0
672,0.0228,0.132,3.45,0.132,3.45,0.9942856603150854,0.0,0.1067521694945567,-0.0,1.0,0.0,0.2,1.0,1.0, 1.0
673,0.0228,0.132,3.45,0.132,3.45,0.9524267215772374,0.0,0.3047676820557513,-0.0,1.0,0.0,0.2,1.0,1.0, 1.0
674,0.0228,0.132,3.45,0.132,3.45,0.8825807174294535,0.0,0.4701609056713576,-0.0,1.0,0.0,0.2,1.0,1.0, 1.0
675,0.0228,0.132,3.45,0.132,3.45,0.8004264114547366,0.0,0.5994310300991205,-0.0,1.0,0.0,0.2,1.0,1.0, 1.0
676,0.0228,0.132,3.45,0.132,3.45,0.7172187208109215,0.0,0.6968481229926254,-0.0,1.0,0.0,0.2,1.0,1.0, 1.0
677,0.0228,0.132,3.45,0.132,3.45,0.6387943752376234,0.0,0.7693775056269675,-0.0,1.0,0.0,0.2,1.0,1.0, 1.0
678,0.0228,0.132,3.45,0.132,3.45,0.5673728088477615,0.0,0.8234610469112679,-0.0,1.0,0.0,0.2,1.0,1.0, 1.0
679,0.0228,0.132,3.45,0.132,3.45,0.5035593542409851,0.0,0.8639606338001761,-0.0,1.0,0.0,0.2,1.0,1.0, 1.0
680,0.0228,0.132,3.45,0.132,3.45,0.44765198703523906,0.0,0.8942078609045004,-0.0,1.0,0.0,0.2,1.0,1.0, 1.0
681,0.0228,0.132,3.45,0.132,3.45,0.40079221235838686,0.0,0.9161689814182041,-0.0,1.0,0.0,0.2,1.0,1.0, 1.0
682,0.0228,0.132,3.45,0.132,3.45,0.3651566102740027,0.0,0.9309461047628912,-0.0,1.0,0.0,0.2,1.0,1.0, 1.0
683,0.0228,0.132,3.45,0.132,3.45,0.9904570009399011,0.0,0.13782209289201963,-0.0,1.0,0.0,0.2,1.0,1.0, 1.0
684,0.0228,0.132,3.45,0.132,3.45,0.9238015664329732,0.0,0.3828716049225704,-0.0,1.0,0.0,0.2,1.0,1.0, 1.0
685,0.0228,0.132,3.45,0.132,3.45,0.8234333190716843,0.0,0.5674130497640936,-0.0,1.0,0.0,0.2,1.0,1.0, 1.0
686,0.0228,0.132,3.45,0.132,3.45,0.7188428040724949,0.0,0.6951726569947876,-0.0,1.0,0.0,0.2,1.0,1.0, 1.0
687,0.0228,0.132,3.45,0.132,3.45,0.6237501235057341,0.0,0.781623811962367,-0.0,1.0,0.0,0.2,1.0,1.0, 1.0
688,0.0228,0.132,3.45,0.132,3.45,0.5414457654046579,0.0,0.8407356797028208,-0.0,1.0,0.0,0.2,1.0,1.0, 1.0
689,0.0228,0.132,3.45,0.132,3.45,0.4711142470307919,0.0,0.8820722001313781,-0.0,1.0,0.0,0.2,1.0,1.0, 1.0
690,0.0228,0.132,3.45,0.132,3.45,0.41109399493536614,0.0,0.9115929614296511,-0.0,1.0,0.0,0.2,1.0,1.0, 1.0
691,0.0228,0.132,3.45,0.132,3.45,0.36034903164484694,0.0,0.9328175466792105,-0.0,1.0,0.0,0.2,1.0,1.0, 1.0
692,0.0228,0.132,3.45,0.132,3.45,0.3189572846830873,0.0,0.9477690913653979,-0.0,1.0,0.0,0.2,1.0,1.0, 1.0
693,0.0228,0.132,3.45,0.132,3.45,0.2881072688973816,0.0,0.9575981420243525,-0.0,1.0,0.0,0.2,1.0,1.0, 1.0
694,0.0228,0.132,3.45,0.132,3.45,0.9812765634292641,0.0,0.19260401362498514,-0.0,1.0,0.0,0.2,1.0,1.0, 1.0
695,0.0228,0.132,3.45,0.132,3.45,0.8633747247065521,0.0,0.5045632613834319,-0.0,1.0,0.0,0.2,1.0,1.0, 1.0
696,0.0228,0.132,3.45,0.132,3.45,0.7177570419686031,0.0,0.6962936368404359,-0.0,1.0,0.0,0.2,1.0,1.0, 1.0
697,0.0228,0.132,3.45,0.132,3.45,0.5927545848448208,0.0,0.8053831399684527,-0.0,1.0,0.0,0.2,1.0,1.0, 1.0
698,0.0228,0.132,3.45,0.132,3.45,0.49466882469238166,0.0,0.8690815576673215,-0.0,1.0,0.0,0.2,1.0,1.0, 1.0
699,0.0228,0.132,3.45,0.132,3.45,0.41783864910493546,0.0,0.9085212508874861,-0.0,1.0,0.0,0.2,1.0,1.0, 1.0
700,0.0228,0.132,3.45,0.132,3.45,0.35628761733102304,0.0,0.9343763341055801,-0.0,1.0,0.0,0.2,1.0,1.0, 1.0
701,0.0228,0.132,3.45,0.132,3.45,0.3060556717781897,0.0,0.9520136163797244,-0.0,1.0,0.0,0.2,1.0,1.0, 1.0
702,0.0228,0.132,3.45,0.132,3.45,0.26484600584492013,0.0,0.9642907202643779,-0.0,1.0,0.0,0.2,1.0,1.0, 1.0
703,0.0228,0.132,3.45,0.132,3.45,0.23201993629033557,0.0,0.9727110306580411,-0.0,1.0,0.0,0.2,1.0,1.0, 1.0
704,0.0228,0.132,3.45,0.132,3.45,0.20797420262875665,0.0,0.9781343113504058,-0.0,1.0,0.0,0.2,1.0,1.0, 1.0
705,0.0228,0.132,3.45,0.132,3.45,0.949796676498842,0.0,0.3128678208313438,-0.0,1.0,0.0,0.2,1.0,1.0, 1.0
706,0.0228,0.132,3.45,0.132,3.45,0.7140411982103206,0.0,0.700103683220114,-0.0,1.0,0.0,0.2,1.0,1.0, 1.0
707,0.0228,0.132,3.45,0.132,3.45,0.5240887256005485,0.0,0.8516636705286853,-0.0,1.0,0.0,0.2,1.0,1.0, 1.0
708,0.0228,0.132,3.45,0.132,3.45,0.4031225896842365,0.0,0.9151459870896417,-0.0,1.0,0.0,0.2,1.0,1.0, 1.0
709,0.0228,0.132,3.45,0.132,3.45,0.32323783800777567,0.0,0.94631775851458,-0.0,1.0,0.0,0.2,1.0,1.0, 1.0
710,0.0228,0.132,3.45,0.132,3.45,0.26651200459489266,0.0,0.9638315990912583,-0.0,1.0,0.0,0.2,1.0,1.0, 1.0
711,0.0228,0.132,3.45,0.132,3.45,0.22356875436958307,0.0,0.974688161449411,-0.0,1.0,0.0,0.2,1.0,1.0, 1.0
712,0.0228,0.132,3.45,0.132,3.45,0.18966591908584787,0.0,0.9818486844403879,-0.0,1.0,0.0,0.2,1.0,1.0, 1.0
713,0.0228,0.132,3.45,0.132,3.45,0.1624827359171558,0.0,0.9867113866419481,-0.0,1.0,0.0,0.2,1.0,1.0, 1.0
714,0.0228,0.132,3.45,0.132,3.45,0.1411760664201,0.0,0.9899845040555671,-0.0,1.0,0.0,0.2,1.0,1.0, 1.0
715,0.0228,0.132,3.45,0.132,3.45,0.12576245039329642,0.0,0.9920603842866994,-0.0,1.0,0.0,0.2,1.0,1.0, 1.0
716,0.0228,0.132,3.45,0.132,3.45,0.7093860116335228,0.0,0.7048201802578326,-0.0,1.0,0.0,0.2,1.0,1.0, 1.0
717,0.0228,0.132,3.45,0.132,3.45,0.32051625741037065,0.0,0.9472430146143328,-0.0,1.0,0.0,0.2,1.0,1.0, 1.0
718,0.0228,0.132,3.45,0.132,3.45,0.20030409041290886,0.0,0.9797337757594443,-0.0,1.0,0.0,0.2,1.0,1.0, 1.0
719,0.0228,0.132,3.45,0.132,3.45,0.14528692350941985,0.0,0.9893895642552372,-0.0,1.0,0.0,0.2,1.0,1.0, 1.0
720,0.0228,0.132,3.45,0.132,3.45,0.11341514197569373,0.0,0.9935476866112836,-0.0,1.0,0.0,0.2,1.0,1.0, 1.0
721,0.0228,0.132,3.45,0.132,3.45,0.09218699362692417,0.0,0.9957417125972123,-0.0,1.0,0.0,0.2,1.0,1.0, 1.0
722,0.0228,0.132,3.45,0.132,3.45,0.07669568905627011,0.0,0.9970545477957482,-0.0,1.0,0.0,0.2,1.0,1.0, 1.0
723,0.0228,0.132,3.45,0.132,3.45,0.06458183155075013,0.0,0.9979124145101866,-0.0,1.0,0.0,0.2,1.0,1.0, 1.0
724,0.0228,0.132,3.45,0.132,3.45,0.05500388144382222,0.0,0.9984861406279578,-0.0,1.0,0.0,0.2,1.0,1.0, 1.0
725,0.0228,0.132,3.45,0.132,3.45,0.04753999670563345,0.0,0.9988693351551184,-0.0,1.0,0.0,0.2,1.0,1.0, 1.0
726,0.0228,0.132,3.45,0.132,3.45,0.042175224464997434,0.0,0.9991102293747809,-0.0,1.0,0.0,0.2,1.0,1.0, 1.0
727,0.0228,0.132,3.45,0.132,3.45,0.7318438383271454,0.0,0.6814723738366736,-0.0,1.0,0.0,0.2,1.0,1.0, 1.0
728,0.0228,0.132,3.45,0.132,3.45,0.7317333344433268,0.0,0.6815910263966586,-0.0,1.0,0.0,0.2,1.0,1.0, 1.0
729,0.0228,0.132,3.45,0.132,3.45,0.7315915889987729,0.0,0.6817431678471376,-0.0,1.0,0.0,0.2,1.0,1.0, 1.0
730,0.0228,0.132,3.45,0.132,3.45,0.7314135726787003,0.0,0.6819341505610198,-0.0,1.0,0.0,0.2,1.0,1.0, 1.0
731,0.0228,0.132,3.45,0.132,3.45,0.7311995969418615,0.0,0.6821635796728371,-0.0,1.0,0.0,0.2,1.0,1.0, 1.0
732,0.0228,0.132,3.45,0.132,3.45,0.7309406395907705,0.0,0.6824410460945585,-0.0,1.0,0.0,0.2,1.0,1.0, 1.0
733,0.0228,0.132,3.45,0.132,3.45,0.7306197131939524,0.0,0.6827846180842,-0.0,1.0,0.0,0.2,1.0,1.0, 1.0
734,0.0228,0.132,3.45,0.132,3.45,0.7301970631493003,0.0,0.683236598088932,-0.0,1.0,0.0,0.2,1.0,1.0, 1.0
735,0.0228,0.132,3.45,0.132,3.45,0.7294846254815625,0.0,0.68399720846362,-0.0,1.0,0.0,0.2,1.0,1.0, 1.0
736,0.0228,0.132,3.45,0.132,3.45,0.7278649039389836,0.0,0.6857205565052678,-0.0,1.0,0.0,0.2,1.0,1.0, 1.0
737,0.0228,0.132,3.45,0.132,3.45,0.723796458886799,0.0,0.690013540521438,-0.0,1.0,0.0,0.2,1.0,1.0, 1.0
738,0.0228,0.132,3.45,0.132,3.45,0.7785130424168821,0.0,0.6276284273252843,-0.0,1.0,0.0,0.2,1.0,1.0, 1.0
739,0.0228,0.132,3.45,0.132,3.45,0.7782442553918855,0.0,0.6279616858929609,-0.0,1.0,0.0,0.2,1.0,1.0, 1.0
740,0.0228,0.132,3.45,0.132,3.45,0.777897755175491,0.0,0.6283908676078385,-0.0,1.0,0.0,0.2,1.0,1.0, 1.0
741,0.0228,0.132,3.45,0.132,3.45,0.7774566376229317,0.0,0.6289365441887166,-0.0,1.0,0.0,0.2,1.0,1.0, 1.0
742,0.0228,0.132,3.45,0.132,3.45,0.7769129725594206,0.0,0.6296079995273923,-0.0,1.0,0.0,0.2,1.0,1.0, 1.0
743,0.0228,0.132,3.45,0.132,3.45,0.7762513134162686,0.0,0.6304235865031684,-0.0,1.0,0.0,0.2,1.0,1.0, 1.0
744,0.0228,0.132,3.45,0.132,3.45,0.7754269679967322,0.0,0.6314372631571523,-0.0,1.0,0.0,0.2,1.0,1.0, 1.0
745,0.0228,0.132,3.45,0.132,3.45,0.7743449092674098,0.0,0.6327637485599558,-0.0,1.0,0.0,0.2,1.0,1.0, 1.0
746,0.0228,0.132,3.45,0.132,3.45,0.7726031118619296,0.0,0.6348893065261554,-0.0,1.0,0.0,0.2,1.0,1.0, 1.0
747,0.0228,0.132,3.45,0.132,3.45,0.7688324299632767,0.0,0.6394503066202746,-0.0,1.0,0.0,0.2,1.0,1.0, 1.0
748,0.0228,0.132,3.45,0.132,3.45,0.7598961001140693,0.0,0.6500445500359405,-0.0,1.0,0.0,0.2,1.0,1.0, 1.0
749,0.0228,0.132,3.45,0.132,3.45,0.8212720588579968,0.0,0.5705367694891776,-0.0,1.0,0.0,0.2,1.0,1.0, 1.0
750,0.0228,0.132,3.45,0.132,3.45,0.8209541250040167,0.0,0.5709941546451146,-0.0,1.0,0.0,0.2,1.0,1.0, 1.0
751,0.0228,0.132,3.45,0.132,3.45,0.8205357297819001,0.0,0.5715952380411198,-0.0,1.0,0.0,0.2,1.0,1.0, 1.0
752,0.0228,0.132,3.45,0.132,3.45,0.8199901976503121,0.0,0.5723775639884935,-0.0,1.0,0.0,0.2,1.0,1.0, 1.0
753,0.0228,0.132,3.45,0.132,3.45,0.8192940523404348,0.0,0.5733735743819982,-0.0,1.0,0.0,0.2,1.0,1.0, 1.0
754,0.0228,0.132,3.45,0.132,3.45,0.8184232587064768,0.0,0.5746158452464319,-0.0,1.0,0.0,0.2,1.0,1.0, 1.0
755,0.0228,0.132,3.45,0.132,3.45,0.8173332787080719,0.0,0.5761651772853972,-0.0,1.0,0.0,0.2,1.0,1.0, 1.0
756,0.0228,0.132,3.45,0.132,3.45,0.81591530344352,0.0,0.5781714430916393,-0.0,1.0,0.0,0.2,1.0,1.0, 1.0
757,0.0228,0.132,3.45,0.132,3.45,0.8137428572058619,0.0,0.5812250530959934,-0.0,1.0,0.0,0.2,1.0,1.0, 1.0
758,0.0228,0.132,3.45,0.132,3.45,0.8093380899419902,0.0,0.5873430481150271,-0.0,1.0,0.0,0.2,1.0,1.0, 1.0
759,0.0228,0.132,3.45,0.132,3.45,0.7995714170646095,0.0,0.6005710191253754,-0.0,1.0,0.0,0.2,1.0,1.0, 1.0
760,0.0228,0.132,3.45,0.132,3.45,0.8598964913981756,0.0,0.5104684359302809,-0.0,1.0,0.0,0.2,1.0,1.0, 1.0
761,0.0228,0.132,3.45,0.132,3.45,0.8596315880958851,0.0,0.5109144084362335,-0.0,1.0,0.0,0.2,1.0,1.0, 1.0
762,0.0228,0.132,3.45,0.132,3.45,0.8592567658441549,0.0,0.5115445340838303,-0.0,1.0,0.0,0.2,1.0,1.0, 1.0
763,0.0228,0.132,3.45,0.132,3.45,0.8587365806938074,0.0,0.5124172957446967,-0.0,1.0,0.0,0.2,1.0,1.0, 1.0
764,0.0228,0.132,3.45,0.132,3.45,0.858046775731677,0.0,0.513571543853895,-0.0,1.0,0.0,0.2,1.0,1.0, 1.0
765,0.0228,0.132,3.45,0.132,3.45,0.8571582254300876,0.0,0.5150531783976708,-0.0,1.0,0.0,0.2,1.0,1.0, 1.0
766,0.0228,0.132,3.45,0.132,3.45,0.8560305460540091,0.0,0.5169252404579169,-0.0,1.0,0.0,0.2,1.0,1.0, 1.0
767,0.0228,0.132,3.45,0.132,3.45,0.8545627599249936,0.0,0.5193481388715836,-0.0,1.0,0.0,0.2,1.0,1.0, 1.0
768,0.0228,0.132,3.45,0.132,3.45,0.8523656987477087,0.0,0.5229461880522029,-0.0,1.0,0.0,0.2,1.0,1.0, 1.0
769,0.0228,0.132,3.45,0.132,3.45,0.8481261010117521,0.0,0.5297944099201152,-0.0,1.0,0.0,0.2,1.0,1.0, 1.0
770,0.0228,0.132,3.45,0.132,3.45,0.8390590424576367,0.0,0.544040369154784,-0.0,1.0,0.0,0.2,1.0,1.0, 1.0
771,0.0228,0.132,3.45,0.132,3.45,0.8941623287895453,0.0,0.44774292822294504,-0.0,1.0,0.0,0.2,1.0,1.0, 1.0
772,0.0228,0.132,3.45,0.132,3.45,0.8940023344924626,0.0,0.4480623013845586,-0.0,1.0,0.0,0.2,1.0,1.0, 1.0
773,0.0228,0.132,3.45,0.132,3.45,0.8937377642067185,0.0,0.4485898001858447,-0.0,1.0,0.0,0.2,1.0,1.0, 1.0
774,0.0228,0.132,3.45,0.132,3.45,0.8933287738923323,0.0,0.4494037179819748,-0.0,1.0,0.0,0.2,1.0,1.0, 1.0
775,0.0228,0.132,3.45,0.132,3.45,0.8927508464732934,0.0,0.45055069206607384,-0.0,1.0,0.0,0.2,1.0,1.0, 1.0
776,0.0228,0.132,3.45,0.132,3.45,0.8919818113919185,0.0,0.4520712865754604,-0.0,1.0,0.0,0.2,1.0,1.0, 1.0
777,0.0228,0.132,3.45,0.132,3.45,0.890979970750256,0.0,0.45404261002891927,-0.0,1.0,0.0,0.2,1.0,1.0, 1.0
778,0.0228,0.132,3.45,0.132,3.45,0.8896559038367171,0.0,0.45663155034280517,-0.0,1.0,0.0,0.2,1.0,1.0, 1.0
779,0.0228,0.132,3.45,0.132,3.45,0.8876900572396844,0.0,0.4604414862692172,-0.0,1.0,0.0,0.2,1.0,1.0, 1.0
780,0.0228,0.132,3.45,0.132,3.45,0.8839919296120722,0.0,0.4675021586909789,-0.0,1.0,0.0,0.2,1.0,1.0, 1.0
781,0.0228,0.132,3.45,0.132,3.45,0.8762323357153122,0.0,0.48188888122355356,-0.0,1.0,0.0,0.2,1.0,1.0, 1.0
782,0.0228,0.132,3.45,0.132,3.45,0.9238737029894204,0.0,0.38269750577266154,-0.0,1.0,0.0,0.2,1.0,1.0, 1.0
783,0.0228,0.132,3.45,0.132,3.45,0.9238243760790525,0.0,0.3828165646391877,-0.0,1.0,0.0,0.2,1.0,1.0, 1.0
784,0.0228,0.132,3.45,0.132,3.45,0.9236833846695301,0.0,0.3831566323130016,-0.0,1.0,0.0,0.2,1.0,1.0, 1.0
785,0.0228,0.132,3.45,0.132,3.45,0.923416983152317,0.0,0.38379822202020875,-0.0,1.0,0.0,0.2,1.0,1.0, 1.0
786,0.0228,0.132,3.45,0.132,3.45,0.9230009772524377,0.0,0.38479760393100826,-0.0,1.0,0.0,0.2,1.0,1.0, 1.0
787,0.0228,0.132,3.45,0.132,3.45,0.9224147935411512,0.0,0.3862006585396192,-0.0,1.0,0.0,0.2,1.0,1.0, 1.0
788,0.0228,0.132,3.45,0.132,3.45,0.9216239531171907,0.0,0.3880841262415179,-0.0,1.0,0.0,0.2,1.0,1.0, 1.0
789,0.0228,0.132,3.45,0.132,3.45,0.9205587449744185,0.0,0.3906041436686555,-0.0,1.0,0.0,0.2,1.0,1.0, 1.0
790,0.0228,0.132,3.45,0.132,3.45,0.9189713841609416,0.0,0.3943242258514215,-0.0,1.0,0.0,0.2,1.0,1.0, 1.0
791,0.0228,0.132,3.45,0.132,3.45,0.916008905007494,0.0,0.40115793142722717,-0.0,1.0,0.0,0.2,1.0,1.0, 1.0
792,0.0228,0.132,3.45,0.132,3.45,0.9098294477685994,0.0,0.4149823803164245,-0.0,1.0,0.0,0.2,1.0,1.0, 1.0
793,0.0228,0.132,3.45,0.132,3.45,0.9488593183062038,0.0,0.3156992145436638,-0.0,1.0,0.0,0.2,1.0,1.0, 1.0
794,0.0228,0.132,3.45,0.132,3.45,0.9488953211498982,0.0,0.31559098450340983,-0.0,1.0,0.0,0.2,1.0,1.0, 1.0
795,0.0228,0.132,3.45,0.132,3.45,0.948857042956648,0.0,0.3157060532070395,-0.0,1.0,0.0,0.2,1.0,1.0, 1.0
796,0.0228,0.132,3.45,0.132,3.45,0.9487181742119842,0.0,0.31612311829393186,-0.0,1.0,0.0,0.2,1.0,1.0, 1.0
797,0.0228,0.132,3.45,0.132,3.45,0.9484603804978349,0.0,0.316895734628761,-0.0,1.0,0.0,0.2,1.0,1.0, 1.0
798,0.0228,0.132,3.45,0.132,3.45,0.9480662074767403,0.0,0.3180730517360285,-0.0,1.0,0.0,0.2,1.0,1.0, 1.0
799,0.0228,0.132,3.45,0.132,3.45,0.9475113957000334,0.0,0.3197219964571953,-0.0,1.0,0.0,0.2,1.0,1.0, 1.0
800,0.0228,0.132,3.45,0.132,3.45,0.9467462378543273,0.0,0.32198068437202476,-0.0,1.0,0.0,0.2,1.0,1.0, 1.0
801,0.0228,0.132,3.45,0.132,3.45,0.945591832464211,0.0,0.325355323265158,-0.0,1.0,0.0,0.2,1.0,1.0, 1.0
802,0.0228,0.132,3.45,0.132,3.45,0.9434306594091987,0.0,0.3315698883896494,-0.0,1.0,0.0,0.2,1.0,1.0, 1.0
803,0.0228,0.132,3.45,0.132,3.45,0.9389192397400674,0.0,0.34413756151564445,-0.0,1.0,0.0,0.2,1.0,1.0, 1.0
804,0.0228,0.132,3.45,0.132,3.45,0.9689855891687383,0.0,0.24711723530201807,-0.0,1.0,0.0,0.2,1.0,1.0, 1.0
805,0.0228,0.132,3.45,0.132,3.45,0.9690610934447942,0.0,0.24682098203268632,-0.0,1.0,0.0,0.2,1.0,1.0, 1.0
806,0.0228,0.132,3.45,0.132,3.45,0.969083161479787,0.0,0.24673432297988246,-0.0,1.0,0.0,0.2,1.0,1.0, 1.0
807,0.0228,0.132,3.45,0.132,3.45,0.9690329705403392,0.0,0.24693137104419519,-0.0,1.0,0.0,0.2,1.0,1.0, 1.0
808,0.0228,0.132,3.45,0.132,3.45,0.9688995139696759,0.0,0.2474545045646285,-0.0,1.0,0.0,0.2,1.0,1.0, 1.0
809,0.0228,0.132,3.45,0.132,3.45,0.968670866254267,0.0,0.24834804784859524,-0.0,1.0,0.0,0.2,1.0,1.0, 1.0
810,0.0228,0.132,3.45,0.132,3.45,0.9683309001219085,0.0,0.24967031835821932,-0.0,1.0,0.0,0.2,1.0,1.0, 1.0
811,0.0228,0.132,3.45,0.132,3.45,0.9678484666903691,0.0,0.251533984831278,-0.0,1.0,0.0,0.2,1.0,1.0, 1.0
812,0.0228,0.132,3.45,0.132,3.45,0.967108782498178,0.0,0.25436313179171943,-0.0,1.0,0.0,0.2,1.0,1.0, 1.0
813,0.0228,0.132,3.45,0.132,3.45,0.9657147153294432,0.0,0.2596056405322749,-0.0,1.0,0.0,0.2,1.0,1.0, 1.0
814,0.0228,0.132,3.45,0.132,3.45,0.9627916791888584,0.0,0.27024467151952924,-0.0,1.0,0.0,0.2,1.0,1.0, 1.0
815,0.0228,0.132,3.45,0.132,3.45,0.9841527526340649,0.0,0.1773227551184373,-0.0,1.0,0.0,0.2,1.0,1.0, 1.0
816,0.0228,0.132,3.45,0.132,3.45,0.9842226680413896,0.0,0.17693428077534515,-0.0,1.0,0.0,0.2,1.0,1.0, 1.0
817,0.0228,0.132,3.45,0.132,3.45,0.9842592295315701,0.0,0.1767307813651033,-0.0,1.0,0.0,0.2,1.0,1.0, 1.0
818,0.0228,0.132,3.45,0.132,3.45,0.98425287616368,0.0,0.1767661612513091,-0.0,1.0,0.0,0.2,1.0,1.0, 1.0
819,0.0228,0.132,3.45,0.132,3.45,0.984198124558251,0.0,0.17707075313563672,-0.0,1.0,0.0,0.2,1.0,1.0, 1.0
820,0.0228,0.132,3.45,0.132,3.45,0.984088467849582,0.0,0.17767916998191507,-0.0,1.0,0.0,0.2,1.0,1.0, 1.0
821,0.0228,0.132,3.45,0.132,3.45,0.9839150578503222,0.0,0.17863694728526117,-0.0,1.0,0.0,0.2,1.0,1.0, 1.0
822,0.0228,0.132,3.45,0.132,3.45,0.9836618621522172,0.0,0.18002594520577403,-0.0,1.0,0.0,0.2,1.0,1.0, 1.0
823,0.0228,0.132,3.45,0.132,3.45,0.9832677889568984,0.0,0.1821660100013515,-0.0,1.0,0.0,0.2,1.0,1.0, 1.0
824,0.0228,0.132,3.45,0.132,3.45,0.9825208048317625,0.0,0.1861528083933883,-0.0,1.0,0.0,0.2,1.0,1.0, 1.0
825,0.0228,0.132,3.45,0.132,3.45,0.9809497343862141,0.0,0.1942617270787432,-0.0,1.0,0.0,0.2,1.0,1.0, 1.0
826,0.0228,0.132,3.45,0.132,3.45,0.994292319735993,0.0,0.10669012566314613,-0.0,1.0,0.0,0.2,1.0,1.0, 1.0
827,0.0228,0.132,3.45,0.132,3.45,0.9943295945346362,0.0,0.10634217146826574,-0.0,1.0,0.0,0.2,1.0,1.0, 1.0
828,0.0228,0.132,3.45,0.132,3.45,0.9943513891423473,0.0,0.10613818780572885,-0.0,1.0,0.0,0.2,1.0,1.0, 1.0
829,0.0228,0.132,3.45,0.132,3.45,0.9943549255602588,0.0,0.10610505178384341,-0.0,1.0,0.0,0.2,1.0,1.0, 1.0
830,0.0228,0.132,3.45,0.132,3.45,0.994338412263968,0.0,0.10625969083510092,-0.0,1.0,0.0,0.2,1.0,1.0, 1.0
831,0.0228,0.132,3.45,0.132,3.45,0.9942998496589962,0.0,0.1066199276312706,-0.0,1.0,0.0,0.2,1.0,1.0, 1.0
832,0.0228,0.132,3.45,0.132,3.45,0.9942362435018084,0.0,0.10721143645811666,-0.0,1.0,0.0,0.2,1.0,1.0, 1.0
833,0.0228,0.132,3.45,0.132,3.45,0.9941415703418587,0.0,0.10808579054724644,-0.0,1.0,0.0,0.2,1.0,1.0, 1.0
834,0.0228,0.132,3.45,0.132,3.45,0.9939934883978234,0.0,0.1094392298160319,-0.0,1.0,0.0,0.2,1.0,1.0, 1.0
835,0.0228,0.132,3.45,0.132,3.45,0.9937132120717416,0.0,0.11195558116530907,-0.0,1.0,0.0,0.2,1.0,1.0, 1.0
836,0.0228,0.132,3.45,0.132,3.45,0.9931245031868322,0.0,0.11706289407795957,-0.0,1.0,0.0,0.2,1.0,1.0, 1.0
837,0.0228,0.132,3.45,0.132,3.45,0.9993664360746776,0.0,0.035591100676959544,-0.0,1.0,0.0,0.2,1.0,1.0, 1.0
838,0.0228,0.132,3.45,0.132,3.45,0.9993722187262395,0.0,0.03542835641394547,-0.0,1.0,0.0,0.2,1.0,1.0, 1.0
839,0.0228,0.132,3.45,0.132,3.45,0.9993753276023412,0.0,0.03534055149136083,-0.0,1.0,0.0,0.2,1.0,1.0, 1.0
840,0.0228,0.132,3.45,0.132,3.45,0.9993759437534026,0.0,0.035323123403739116,-0.0,1.0,0.0,0.2,1.0,1.0, 1.0
841,0.0228,0.132,3.45,0.132,3.45,0.9993740018933681,0.0,0.03537802057258537,-0.0,1.0,0.0,0.2,1.0,1.0, 1.0
842,0.0228,0.132,3.45,0.132,3.45,0.9993693591876932,0.0,0.0355089272828602,-0.0,1.0,0.0,0.2,1.0,1.0, 1.0
843,0.0228,0.132,3.45,0.132,3.45,0.9993617311260556,0.0,0.035722966852336814,-0.0,1.0,0.0,0.2,1.0,1.0, 1.0
844,0.0228,0.132,3.45,0.132,3.45,0.9993504354913223,0.0,0.0360375787658428,-0.0,1.0,0.0,0.2,1.0,1.0, 1.0
845,0.0228,0.132,3.45,0.132,3.45,0.9993329771849268,0.0,0.03651849819900346,-0.0,1.0,0.0,0.2,1.0,1.0, 1.0
846,0.0228,0.132,3.45,0.132,3.45,0.9993005163204123,0.0,0.03739623084961243,-0.0,1.0,0.0,0.2,1.0,1.0, 1.0
847,0.0228,0.132,3.45,0.132,3.45,0.9992330448976136,0.0,0.03915765550494118,-0.0,1.0,0.0,0.2,1.0,1.0, 1.0
848,0.0228,0.132,3.45,0.132,3.45,0.731842388340659,0.0,0.6814739309965129,-0.0,1.0,0.0,0.2,1.0,1.0, 1.0
849,0.0228,0.132,3.45,0.132,3.45,0.7317250837215776,0.0,0.6815998839881433,-0.0,1.0,0.0,0.2,1.0,1.0, 1.0
850,0.0228,0.132,3.45,0.132,3.45,0.7315835250315463,0.0,0.6817518213414736,-0.0,1.0,0.0,0.2,1.0,1.0, 1.0
851,0.0228,0.132,3.45,0.132,3.45,0.7314163884055344,0.0,0.6819311305196475,-0.0,1.0,0.0,0.2,1.0,1.0, 1.0
852,0.0228,0.132,3.45,0.132,3.45,0.7312224406399698,0.0,0.6821390930774499,-0.0,1.0,0.0,0.2,1.0,1.0, 1.0
853,0.0228,0.132,3.45,0.132,3.45,0.7309899903897833,0.0,0.6823881842103836,-0.0,1.0,0.0,0.2,1.0,1.0, 1.0
854,0.0228,0.132,3.45,0.132,3.45,0.730688042282551,0.0,0.6827114946046338,-0.0,1.0,0.0,0.2,1.0,1.0, 1.0
855,0.0228,0.132,3.45,0.132,3.45,0.7302461827390319,0.0,0.6831840986111083,-0.0,1.0,0.0,0.2,1.0,1.0, 1.0
856,0.0228,0.132,3.45,0.132,3.45,0.7294260697896375,0.0,0.6840596528894558,-0.0,1.0,0.0,0.2,1.0,1.0, 1.0
857,0.0228,0.132,3.45,0.132,3.45,0.727605397184032,0.0,0.6859959081428016,-0.0,1.0,0.0,0.2,1.0,1.0, 1.0
858,0.0228,0.132,3.45,0.132,3.45,0.7234151140699843,0.0,0.6904133347025617,-0.0,1.0,0.0,0.2,1.0,1.0, 1.0
859,0.0228,0.132,3.45,0.132,3.45,0.7785063672286417,0.0,0.6276367071678194,-0.0,1.0,0.0,0.2,1.0,1.0, 1.0
860,0.0228,0.132,3.45,0.132,3.45,0.7782204081552005,0.0,0.6279912390557315,-0.0,1.0,0.0,0.2,1.0,1.0, 1.0
861,0.0228,0.132,3.45,0.132,3.45,0.7778744617343486,0.0,0.6284197019361323,-0.0,1.0,0.0,0.2,1.0,1.0, 1.0
862,0.0228,0.132,3.45,0.132,3.45,0.7774496219536705,0.0,0.6289452164728616,-0.0,1.0,0.0,0.2,1.0,1.0, 1.0
863,0.0228,0.132,3.45,0.132,3.45,0.7769473707439322,0.0,0.6295655510700146,-0.0,1.0,0.0,0.2,1.0,1.0, 1.0
864,0.0228,0.132,3.45,0.132,3.45,0.7763460881736409,0.0,0.6303068707998394,-0.0,1.0,0.0,0.2,1.0,1.0, 1.0
865,0.0228,0.132,3.45,0.132,3.45,0.7755726522739577,0.0,0.631258315624229,-0.0,1.0,0.0,0.2,1.0,1.0, 1.0
866,0.0228,0.132,3.45,0.132,3.45,0.7744550303622979,0.0,0.6326289638852558,-0.0,1.0,0.0,0.2,1.0,1.0, 1.0
867,0.0228,0.132,3.45,0.132,3.45,0.7724392037777799,0.0,0.6350887154304897,-0.0,1.0,0.0,0.2,1.0,1.0, 1.0
868,0.0228,0.132,3.45,0.132,3.45,0.7681468853993548,0.0,0.6402736621564802,-0.0,1.0,0.0,0.2,1.0,1.0, 1.0
869,0.0228,0.132,3.45,0.132,3.45,0.758794946557781,0.0,0.6513295856003889,-0.0,1.0,0.0,0.2,1.0,1.0, 1.0
870,0.0228,0.132,3.45,0.132,3.45,0.8212572534440677,0.0,0.5705580808870437,-0.0,1.0,0.0,0.2,1.0,1.0, 1.0
871,0.0228,0.132,3.45,0.132,3.45,0.8209081642188731,0.0,0.5710602296770454,-0.0,1.0,0.0,0.2,1.0,1.0, 1.0
872,0.0228,0.132,3.45,0.132,3.45,0.8204810372987833,0.0,0.5716737421231732,-0.0,1.0,0.0,0.2,1.0,1.0, 1.0
873,0.0228,0.132,3.45,0.132,3.45,0.8199394633331466,0.0,0.5724502392950425,-0.0,1.0,0.0,0.2,1.0,1.0, 1.0
874,0.0228,0.132,3.45,0.132,3.45,0.8192819732749808,0.0,0.5733908337832527,-0.0,1.0,0.0,0.2,1.0,1.0, 1.0
875,0.0228,0.132,3.45,0.132,3.45,0.8184850525286268,0.0,0.574527822465728,-0.0,1.0,0.0,0.2,1.0,1.0, 1.0
876,0.0228,0.132,3.45,0.132,3.45,0.8174700343000667,0.0,0.5759711303715211,-0.0,1.0,0.0,0.2,1.0,1.0, 1.0
877,0.0228,0.132,3.45,0.132,3.45,0.816022393704127,0.0,0.5780202876832152,-0.0,1.0,0.0,0.2,1.0,1.0, 1.0
878,0.0228,0.132,3.45,0.132,3.45,0.8135129001548582,0.0,0.5815468693765206,-0.0,1.0,0.0,0.2,1.0,1.0, 1.0
879,0.0228,0.132,3.45,0.132,3.45,0.8084273601334784,0.0,0.5885959593707853,-0.0,1.0,0.0,0.2,1.0,1.0, 1.0
880,0.0228,0.132,3.45,0.132,3.45,0.7980253389654131,0.0,0.6026238946217928,-0.0,1.0,0.0,0.2,1.0,1.0, 1.0
881,0.0228,0.132,3.45,0.132,3.45,0.8598727619257239,0.0,0.5105084066871254,-0.0,1.0,0.0,0.2,1.0,1.0, 1.0
882,0.0228,0.132,3.45,0.132,3.45,0.8595565321901424,0.0,0.5110406715411764,-0.0,1.0,0.0,0.2,1.0,1.0, 1.0
883,0.0228,0.132,3.45,0.132,3.45,0.8591519548628964,0.0,0.5117205472279412,-0.0,1.0,0.0,0.2,1.0,1.0, 1.0
884,0.0228,0.132,3.45,0.132,3.45,0.8586255917292805,0.0,0.5126032512846,-0.0,1.0,0.0,0.2,1.0,1.0, 1.0
885,0.0228,0.132,3.45,0.132,3.45,0.8579665358029903,0.0,0.5137055805052309,-0.0,1.0,0.0,0.2,1.0,1.0, 1.0
886,0.0228,0.132,3.45,0.132,3.45,0.8571487936552137,0.0,0.5150688745550561,-0.0,1.0,0.0,0.2,1.0,1.0, 1.0
887,0.0228,0.132,3.45,0.132,3.45,0.8561037165996603,0.0,0.516804050317186,-0.0,1.0,0.0,0.2,1.0,1.0, 1.0
888,0.0228,0.132,3.45,0.132,3.45,0.8546212188455652,0.0,0.5192519352866397,-0.0,1.0,0.0,0.2,1.0,1.0, 1.0
889,0.0228,0.132,3.45,0.132,3.45,0.8521154340605351,0.0,0.5233538831764085,-0.0,1.0,0.0,0.2,1.0,1.0, 1.0
890,0.0228,0.132,3.45,0.132,3.45,0.8472071866852996,0.0,0.5312626307475237,-0.0,1.0,0.0,0.2,1.0,1.0, 1.0
891,0.0228,0.132,3.45,0.132,3.45,0.8374832982644216,0.0,0.5464629220067414,-0.0,1.0,0.0,0.2,1.0,1.0, 1.0
892,0.0228,0.132,3.45,0.132,3.45,0.8941302270760836,0.0,0.44780703101768204,-0.0,1.0,0.0,0.2,1.0,1.0, 1.0
893,0.0228,0.132,3.45,0.132,3.45,0.8939067330342858,0.0,0.44825300069934826,-0.0,1.0,0.0,0.2,1.0,1.0, 1.0
894,0.0228,0.132,3.45,0.132,3.45,0.8935963094593168,0.0,0.44887151359903527,-0.0,1.0,0.0,0.2,1.0,1.0, 1.0
895,0.0228,0.132,3.45,0.132,3.45,0.8931690677450699,0.0,0.4497210428959297,-0.0,1.0,0.0,0.2,1.0,1.0, 1.0
896,0.0228,0.132,3.45,0.132,3.45,0.8926098026311022,0.0,0.45083005694703265,-0.0,1.0,0.0,0.2,1.0,1.0, 1.0
897,0.0228,0.132,3.45,0.132,3.45,0.8918992161651458,0.0,0.4522342183028595,-0.0,1.0,0.0,0.2,1.0,1.0, 1.0
898,0.0228,0.132,3.45,0.132,3.45,0.8909743228265641,0.0,0.4540536929304129,-0.0,1.0,0.0,0.2,1.0,1.0, 1.0
899,0.0228,0.132,3.45,0.132,3.45,0.8896523554539209,0.0,0.4566384635959727,-0.0,1.0,0.0,0.2,1.0,1.0, 1.0
900,0.0228,0.132,3.45,0.132,3.45,0.8874429184711512,0.0,0.4609176352184908,-0.0,1.0,0.0,0.2,1.0,1.0, 1.0
901,0.0228,0.132,3.45,0.132,3.45,0.8831910655473,0.0,0.4690133705316142,-0.0,1.0,0.0,0.2,1.0,1.0, 1.0
902,0.0228,0.132,3.45,0.132,3.45,0.8748767372947449,0.0,0.4843456354097784,-0.0,1.0,0.0,0.2,1.0,1.0, 1.0
903,0.0228,0.132,3.45,0.132,3.45,0.9238365060730743,0.0,0.3827872908636004,-0.0,1.0,0.0,0.2,1.0,1.0, 1.0
904,0.0228,0.132,3.45,0.132,3.45,0.9237209665254618,0.0,0.38306602042111043,-0.0,1.0,0.0,0.2,1.0,1.0, 1.0
905,0.0228,0.132,3.45,0.132,3.45,0.923529497183875,0.0,0.3835274016694231,-0.0,1.0,0.0,0.2,1.0,1.0, 1.0
906,0.0228,0.132,3.45,0.132,3.45,0.9232337631713626,0.0,0.3842387520025074,-0.0,1.0,0.0,0.2,1.0,1.0, 1.0
907,0.0228,0.132,3.45,0.132,3.45,0.9228223600437399,0.0,0.3852257673148333,-0.0,1.0,0.0,0.2,1.0,1.0, 1.0
908,0.0228,0.132,3.45,0.132,3.45,0.922279822871331,0.0,0.386522869083352,-0.0,1.0,0.0,0.2,1.0,1.0, 1.0
909,0.0228,0.132,3.45,0.132,3.45,0.9215542984509466,0.0,0.38824950097403027,-0.0,1.0,0.0,0.2,1.0,1.0, 1.0
910,0.0228,0.132,3.45,0.132,3.45,0.9205020847025586,0.0,0.39073765119097964,-0.0,1.0,0.0,0.2,1.0,1.0, 1.0
911,0.0228,0.132,3.45,0.132,3.45,0.9187381169096116,0.0,0.39486741133876946,-0.0,1.0,0.0,0.2,1.0,1.0, 1.0
912,0.0228,0.132,3.45,0.132,3.45,0.9153568903161425,0.0,0.4026434692761841,-0.0,1.0,0.0,0.2,1.0,1.0, 1.0
913,0.0228,0.132,3.45,0.132,3.45,0.9087610149631684,0.0,0.41731692714663765,-0.0,1.0,0.0,0.2,1.0,1.0, 1.0
914,0.0228,0.132,3.45,0.132,3.45,0.9488247513534576,0.0,0.31580308931207335,-0.0,1.0,0.0,0.2,1.0,1.0, 1.0
915,0.0228,0.132,3.45,0.132,3.45,0.9487986411726772,0.0,0.31588152606456965,-0.0,1.0,0.0,0.2,1.0,1.0, 1.0
916,0.0228,0.132,3.45,0.132,3.45,0.9487109216519092,0.0,0.31614488314439804,-0.0,1.0,0.0,0.2,1.0,1.0, 1.0
917,0.0228,0.132,3.45,0.132,3.45,0.9485402897878102,0.0,0.31665646787845164,-0.0,1.0,0.0,0.2,1.0,1.0, 1.0
918,0.0228,0.132,3.45,0.132,3.45,0.9482783067003511,0.0,0.31744015663037184,-0.0,1.0,0.0,0.2,1.0,1.0, 1.0
919,0.0228,0.132,3.45,0.132,3.45,0.9479125407093333,0.0,0.31853071306543834,-0.0,1.0,0.0,0.2,1.0,1.0, 1.0
920,0.0228,0.132,3.45,0.132,3.45,0.9474064285468402,0.0,0.3200329032273415,-0.0,1.0,0.0,0.2,1.0,1.0, 1.0
921,0.0228,0.132,3.45,0.132,3.45,0.9466567200220827,0.0,0.3222437810680481,-0.0,1.0,0.0,0.2,1.0,1.0, 1.0
922,0.0228,0.132,3.45,0.132,3.45,0.9453826951314466,0.0,0.3259625127925024,-0.0,1.0,0.0,0.2,1.0,1.0, 1.0
923,0.0228,0.132,3.45,0.132,3.45,0.9429306373819202,0.0,0.33298920866377335,-0.0,1.0,0.0,0.2,1.0,1.0, 1.0
924,0.0228,0.132,3.45,0.132,3.45,0.9381361119210987,0.0,0.34626671152388255,-0.0,1.0,0.0,0.2,1.0,1.0, 1.0
925,0.0228,0.132,3.45,0.132,3.45,0.9689591194844219,0.0,0.24722100389726973,-0.0,1.0,0.0,0.2,1.0,1.0, 1.0
926,0.0228,0.132,3.45,0.132,3.45,0.9689853765857044,0.0,0.2471180688720692,-0.0,1.0,0.0,0.2,1.0,1.0, 1.0
927,0.0228,0.132,3.45,0.132,3.45,0.9689665606757251,0.0,0.24719183702593478,-0.0,1.0,0.0,0.2,1.0,1.0, 1.0
928,0.0228,0.132,3.45,0.132,3.45,0.9688883595300074,0.0,0.24749817528065005,-0.0,1.0,0.0,0.2,1.0,1.0, 1.0
929,0.0228,0.132,3.45,0.132,3.45,0.9687462874022407,0.0,0.2480536850046283,-0.0,1.0,0.0,0.2,1.0,1.0, 1.0
930,0.0228,0.132,3.45,0.132,3.45,0.9685327228528309,0.0,0.2488862486423896,-0.0,1.0,0.0,0.2,1.0,1.0, 1.0
931,0.0228,0.132,3.45,0.132,3.45,0.9682242830364622,0.0,0.2500834615453981,-0.0,1.0,0.0,0.2,1.0,1.0, 1.0
932,0.0228,0.132,3.45,0.132,3.45,0.9677541884092039,0.0,0.2518964684477395,-0.0,1.0,0.0,0.2,1.0,1.0, 1.0
933,0.0228,0.132,3.45,0.132,3.45,0.9669412246106106,0.0,0.25499934931001816,-0.0,1.0,0.0,0.2,1.0,1.0, 1.0
934,0.0228,0.132,3.45,0.132,3.45,0.9653649765235338,0.0,0.2609031661396947,-0.0,1.0,0.0,0.2,1.0,1.0, 1.0
935,0.0228,0.132,3.45,0.132,3.45,0.962267543132511,0.0,0.2721050816021652,-0.0,1.0,0.0,0.2,1.0,1.0, 1.0
936,0.0228,0.132,3.45,0.132,3.45,0.984136652159273,0.0,0.17741209055962903,-0.0,1.0,0.0,0.2,1.0,1.0, 1.0
937,0.0228,0.132,3.45,0.132,3.45,0.9841766718519814,0.0,0.17718995056818895,-0.0,1.0,0.0,0.2,1.0,1.0, 1.0
938,0.0228,0.132,3.45,0.132,3.45,0.9841874257325945,0.0,0.17713020925254022,-0.0,1.0,0.0,0.2,1.0,1.0, 1.0
939,0.0228,0.132,3.45,0.132,3.45,0.9841617183689434,0.0,0.17727298749975628,-0.0,1.0,0.0,0.2,1.0,1.0, 1.0
940,0.0228,0.132,3.45,0.132,3.45,0.9840985575693725,0.0,0.17762327828829327,-0.0,1.0,0.0,0.2,1.0,1.0, 1.0
941,0.0228,0.132,3.45,0.132,3.45,0.9839945870102997,0.0,0.17819835222142158,-0.0,1.0,0.0,0.2,1.0,1.0, 1.0
942,0.0228,0.132,3.45,0.132,3.45,0.9838377174504166,0.0,0.1790624073387661,-0.0,1.0,0.0,0.2,1.0,1.0, 1.0
943,0.0228,0.132,3.45,0.132,3.45,0.9835920873844284,0.0,0.1804067782394632,-0.0,1.0,0.0,0.2,1.0,1.0, 1.0
944,0.0228,0.132,3.45,0.132,3.45,0.9831605846965714,0.0,0.1827437131588824,-0.0,1.0,0.0,0.2,1.0,1.0, 1.0
945,0.0228,0.132,3.45,0.132,3.45,0.982317845742214,0.0,0.18722085871071065,-0.0,1.0,0.0,0.2,1.0,1.0, 1.0
946,0.0228,0.132,3.45,0.132,3.45,0.9806547368103562,0.0,0.19574546526397776,-0.0,1.0,0.0,0.2,1.0,1.0, 1.0
947,0.0228,0.132,3.45,0.132,3.45,0.9942870017243663,0.0,0.10673967491973146,-0.0,1.0,0.0,0.2,1.0,1.0, 1.0
948,0.0228,0.132,3.45,0.132,3.45,0.9943136063885206,0.0,0.10649155905823826,-0.0,1.0,0.0,0.2,1.0,1.0, 1.0
949,0.0228,0.132,3.45,0.132,3.45,0.9943249651919192,0.0,0.10638544823465731,-0.0,1.0,0.0,0.2,1.0,1.0, 1.0
950,0.0228,0.132,3.45,0.132,3.45,0.9943200377674102,0.0,0.10643149202287902,-0.0,1.0,0.0,0.2,1.0,1.0, 1.0
951,0.0228,0.132,3.45,0.132,3.45,0.9942991298849255,0.0,0.10662663977674601,-0.0,1.0,0.0,0.2,1.0,1.0, 1.0
952,0.0228,0.132,3.45,0.132,3.45,0.9942619347771071,0.0,0.10697291738231562,-0.0,1.0,0.0,0.2,1.0,1.0, 1.0
953,0.0228,0.132,3.45,0.132,3.45,0.9942045779077263,0.0,0.10750468486219412,-0.0,1.0,0.0,0.2,1.0,1.0, 1.0
954,0.0228,0.132,3.45,0.132,3.45,0.9941133588857012,0.0,0.10834495689689097,-0.0,1.0,0.0,0.2,1.0,1.0, 1.0
955,0.0228,0.132,3.45,0.132,3.45,0.9939522875016458,0.0,0.10981279602234724,-0.0,1.0,0.0,0.2,1.0,1.0, 1.0
956,0.0228,0.132,3.45,0.132,3.45,0.9936372691437599,0.0,0.11262760482462127,-0.0,1.0,0.0,0.2,1.0,1.0, 1.0
957,0.0228,0.132,3.45,0.132,3.45,0.9930151306005173,0.0,0.11798707725186457,-0.0,1.0,0.0,0.2,1.0,1.0, 1.0
958,0.0228,0.132,3.45,0.132,3.45,0.9993664019102192,0.0,0.035592059971604716,-0.0,1.0,0.0,0.2,1.0,1.0, 1.0
959,0.0228,0.132,3.45,0.132,3.45,0.999371675311644,0.0,0.035443681874177645,-0.0,1.0,0.0,0.2,1.0,1.0, 1.0
960,0.0228,0.132,3.45,0.132,3.45,0.9993737101856163,0.0,0.03538625990176977,-0.0,1.0,0.0,0.2,1.0,1.0, 1.0
961,0.0228,0.132,3.45,0.132,3.45,0.9993732815948055,0.0,0.03539836203032069,-0.0,1.0,0.0,0.2,1.0,1.0, 1.0
962,0.0228,0.132,3.45,0.132,3.45,0.999370731369178,0.0,0.03547028732099874,-0.0,1.0,0.0,0.2,1.0,1.0, 1.0
963,0.0228,0.132,3.45,0.132,3.45,0.9993662206035925,0.0,0.03559715039847789,-0.0,1.0,0.0,0.2,1.0,1.0, 1.0
964,0.0228,0.132,3.45,0.132,3.45,0.9993594038198798,0.0,0.035788014708483015,-0.0,1.0,0.0,0.2,1.0,1.0, 1.0
965,0.0228,0.132,3.45,0.132,3.45,0.9993487120382774,0.0,0.036085339785518596,-0.0,1.0,0.0,0.2,1.0,1.0, 1.0
966,0.0228,0.132,3.45,0.132,3.45,0.9993300947787531,0.0,0.036597290466486555,-0.0,1.0,0.0,0.2,1.0,1.0, 1.0
967,0.0228,0.132,3.45,0.132,3.45,0.9992940953846733,0.0,0.03756741845439645,-0.0,1.0,0.0,0.2,1.0,1.0, 1.0
968,0.0228,0.132,3.45,0.132,3.45,0.9992233848872523,0.0,0.0394033893778443,-0.0,1.0,0.0,0.2,1.0,1.0, 1.0
969,0.0228,0.132,3.45,0.132,3.45,0.731823951472514,0.0,0.6814937300160255,-0.0,1.0,0.0,0.2,1.0,1.0, 1.0
970,0.0228,0.132,3.45,0.132,3.45,0.7316730274476401,0.0,0.681655764228254,-0.0,1.0,0.0,0.2,1.0,1.0, 1.0
971,0.0228,0.132,3.45,0.132,3.45,0.731500469190206,0.0,0.6818409371506733,-0.0,1.0,0.0,0.2,1.0,1.0, 1.0
972,0.0228,0.132,3.45,0.132,3.45,0.7313039187620983,0.0,0.6820517417345977,-0.0,1.0,0.0,0.2,1.0,1.0, 1.0
973,0.0228,0.132,3.45,0.132,3.45,0.7310840787749778,0.0,0.6822873806261859,-0.0,1.0,0.0,0.2,1.0,1.0, 1.0
974,0.0228,0.132,3.45,0.132,3.45,0.7308381681422319,0.0,0.6825507834487532,-0.0,1.0,0.0,0.2,1.0,1.0, 1.0
975,0.0228,0.132,3.45,0.132,3.45,0.7305562072598413,0.0,0.6828525668357085,-0.0,1.0,0.0,0.2,1.0,1.0, 1.0
976,0.0228,0.132,3.45,0.132,3.45,0.730210786107331,0.0,0.6832219316243542,-0.0,1.0,0.0,0.2,1.0,1.0, 1.0
977,0.0228,0.132,3.45,0.132,3.45,0.7295924166865791,0.0,0.683882230733799,-0.0,1.0,0.0,0.2,1.0,1.0, 1.0
978,0.0228,0.132,3.45,0.132,3.45,0.7280664747089841,0.0,0.6855065341809896,-0.0,1.0,0.0,0.2,1.0,1.0, 1.0
979,0.0228,0.132,3.45,0.132,3.45,0.7240240661620313,0.0,0.6897747107702621,-0.0,1.0,0.0,0.2,1.0,1.0, 1.0
980,0.0228,0.132,3.45,0.132,3.45,0.7784681043088443,0.0,0.6276841646670677,-0.0,1.0,0.0,0.2,1.0,1.0, 1.0
981,0.0228,0.132,3.45,0.132,3.45,0.7780982612659256,0.0,0.6281425760246978,-0.0,1.0,0.0,0.2,1.0,1.0, 1.0
982,0.0228,0.132,3.45,0.132,3.45,0.7776750772648557,0.0,0.6286664252217551,-0.0,1.0,0.0,0.2,1.0,1.0, 1.0
983,0.0228,0.132,3.45,0.132,3.45,0.7771730051277964,0.0,0.6292869934303665,-0.0,1.0,0.0,0.2,1.0,1.0, 1.0
984,0.0228,0.132,3.45,0.132,3.45,0.7766056639096751,0.0,0.6299870179483168,-0.0,1.0,0.0,0.2,1.0,1.0, 1.0
985,0.0228,0.132,3.45,0.132,3.45,0.7759794457929721,0.0,0.6307581943239675,-0.0,1.0,0.0,0.2,1.0,1.0, 1.0
986,0.0228,0.132,3.45,0.132,3.45,0.7752655707570072,0.0,0.6316354128758236,-0.0,1.0,0.0,0.2,1.0,1.0, 1.0
987,0.0228,0.132,3.45,0.132,3.45,0.7743881573909622,0.0,0.6327108199585575,-0.0,1.0,0.0,0.2,1.0,1.0, 1.0
988,0.0228,0.132,3.45,0.132,3.45,0.7729058981738995,0.0,0.6345206636256993,-0.0,1.0,0.0,0.2,1.0,1.0, 1.0
989,0.0228,0.132,3.45,0.132,3.45,0.769381203902176,0.0,0.6387899209302212,-0.0,1.0,0.0,0.2,1.0,1.0, 1.0
990,0.0228,0.132,3.45,0.132,3.45,0.7605624550673632,0.0,0.6492647779926964,-0.0,1.0,0.0,0.2,1.0,1.0, 1.0
991,0.0228,0.132,3.45,0.132,3.45,0.8212153988125195,0.0,0.5706183214314052,-0.0,1.0,0.0,0.2,1.0,1.0, 1.0
992,0.0228,0.132,3.45,0.132,3.45,0.820764960491364,0.0,0.5712660322735894,-0.0,1.0,0.0,0.2,1.0,1.0, 1.0
993,0.0228,0.132,3.45,0.132,3.45,0.8202368281493251,0.0,0.5720240779438699,-0.0,1.0,0.0,0.2,1.0,1.0, 1.0
994,0.0228,0.132,3.45,0.132,3.45,0.8195950080490052,0.0,0.5729432980506458,-0.0,1.0,0.0,0.2,1.0,1.0, 1.0
995,0.0228,0.132,3.45,0.132,3.45,0.8188618919642472,0.0,0.5739905939026646,-0.0,1.0,0.0,0.2,1.0,1.0, 1.0
996,0.0228,0.132,3.45,0.132,3.45,0.8180521586111563,0.0,0.575144039168996,-0.0,1.0,0.0,0.2,1.0,1.0, 1.0
997,0.0228,0.132,3.45,0.132,3.45,0.8171316525128531,0.0,0.5764510928618436,-0.0,1.0,0.0,0.2,1.0,1.0, 1.0
998,0.0228,0.132,3.45,0.132,3.45,0.8159903643346004,0.0,0.5780655026146139,-0.0,1.0,0.0,0.2,1.0,1.0, 1.0
999,0.0228,0.132,3.45,0.132,3.45,0.8141687961206684,0.0,0.5806282557914502,-0.0,1.0,0.0,0.2,1.0,1.0, 1.0
1000,0.0228,0.132,3.45,0.132,3.45,0.8101161844894378,0.0,0.5862693643951346,-0.0,1.0,0.0,0.2,1.0,1.0, 1.0
1001,0.0228,0.132,3.45,0.132,3.45,0.8005927757507094,0.0,0.5992088178721791,-0.0,1.0,0.0,0.2,1.0,1.0, 1.0
1002,0.0228,0.132,3.45,0.132,3.45,0.8598325738988444,0.0,0.5105760911582997,-0.0,1.0,0.0,0.2,1.0,1.0, 1.0
1003,0.0228,0.132,3.45,0.132,3.45,0.8594200963309984,0.0,0.5112700832460446,-0.0,1.0,0.0,0.2,1.0,1.0, 1.0
1004,0.0228,0.132,3.45,0.132,3.45,0.858912915808374,0.0,0.5121216682171893,-0.0,1.0,0.0,0.2,1.0,1.0, 1.0
1005,0.0228,0.132,3.45,0.132,3.45,0.8582913432077653,0.0,0.5131627131569577,-0.0,1.0,0.0,0.2,1.0,1.0, 1.0
1006,0.0228,0.132,3.45,0.132,3.45,0.8575669951827597,0.0,0.5143722861636429,-0.0,1.0,0.0,0.2,1.0,1.0, 1.0
1007,0.0228,0.132,3.45,0.132,3.45,0.8567513259270559,0.0,0.5157297407773103,-0.0,1.0,0.0,0.2,1.0,1.0, 1.0
1008,0.0228,0.132,3.45,0.132,3.45,0.8558214189628195,0.0,0.5172713976670914,-0.0,1.0,0.0,0.2,1.0,1.0, 1.0
1009,0.0228,0.132,3.45,0.132,3.45,0.8546605891532726,0.0,0.5191871313391551,-0.0,1.0,0.0,0.2,1.0,1.0, 1.0
1010,0.0228,0.132,3.45,0.132,3.45,0.8528478323251683,0.0,0.5221595301229901,-0.0,1.0,0.0,0.2,1.0,1.0, 1.0
1011,0.0228,0.132,3.45,0.132,3.45,0.8490133080906228,0.0,0.5283714627844858,-0.0,1.0,0.0,0.2,1.0,1.0, 1.0
1012,0.0228,0.132,3.45,0.132,3.45,0.8402847041807373,0.0,0.5421453826418619,-0.0,1.0,0.0,0.2,1.0,1.0, 1.0
1013,0.0228,0.132,3.45,0.132,3.45,0.8940946245637332,0.0,0.4478781110148574,-0.0,1.0,0.0,0.2,1.0,1.0, 1.0
1014,0.0228,0.132,3.45,0.132,3.45,0.8937933946543115,0.0,0.44847894897344076,-0.0,1.0,0.0,0.2,1.0,1.0, 1.0
1015,0.0228,0.132,3.45,0.132,3.45,0.8933960881588024,0.0,0.449269885105322,-0.0,1.0,0.0,0.2,1.0,1.0, 1.0
1016,0.0228,0.132,3.45,0.132,3.45,0.8928876524392113,0.0,0.4502795133265495,-0.0,1.0,0.0,0.2,1.0,1.0, 1.0
1017,0.0228,0.132,3.45,0.132,3.45,0.8922778288895028,0.0,0.4514867396416367,-0.0,1.0,0.0,0.2,1.0,1.0, 1.0
1018,0.0228,0.132,3.45,0.132,3.45,0.8915787522723808,0.0,0.4528656848298669,-0.0,1.0,0.0,0.2,1.0,1.0, 1.0
1019,0.0228,0.132,3.45,0.132,3.45,0.8907741631435163,0.0,0.45444624574966835,-0.0,1.0,0.0,0.2,1.0,1.0, 1.0
1020,0.0228,0.132,3.45,0.132,3.45,0.8897589802745328,0.0,0.4564306705523015,-0.0,1.0,0.0,0.2,1.0,1.0, 1.0
1021,0.0228,0.132,3.45,0.132,3.45,0.8881727897154171,0.0,0.45950962515396077,-0.0,1.0,0.0,0.2,1.0,1.0, 1.0
1022,0.0228,0.132,3.45,0.132,3.45,0.8848791003519011,0.0,0.4658207571163079,-0.0,1.0,0.0,0.2,1.0,1.0, 1.0
1023,0.0228,0.132,3.45,0.132,3.45,0.877503590506805,0.0,0.4795700664633537,-0.0,1.0,0.0,0.2,1.0,1.0, 1.0
1024,0.0228,0.132,3.45,0.132,3.45,0.9238089437016715,0.0,0.38285380439118255,-0.0,1.0,0.0,0.2,1.0,1.0, 1.0
1025,0.0228,0.132,3.45,0.132,3.45,0.9236357645926209,0.0,0.38327141083754807,-0.0,1.0,0.0,0.2,1.0,1.0, 1.0
1026,0.0228,0.132,3.45,0.132,3.45,0.9233790941980373,0.0,0.38388936999871764,-0.0,1.0,0.0,0.2,1.0,1.0, 1.0
1027,0.0228,0.132,3.45,0.132,3.45,0.9230210842517613,0.0,0.38474937040455676,-0.0,1.0,0.0,0.2,1.0,1.0, 1.0
1028,0.0228,0.132,3.45,0.132,3.45,0.922573977778484,0.0,0.3858202373204201,-0.0,1.0,0.0,0.2,1.0,1.0, 1.0
1029,0.0228,0.132,3.45,0.132,3.45,0.9220510615135038,0.0,0.3870682626641206,-0.0,1.0,0.0,0.2,1.0,1.0, 1.0
1030,0.0228,0.132,3.45,0.132,3.45,0.9214387404697632,0.0,0.38852367696383233,-0.0,1.0,0.0,0.2,1.0,1.0, 1.0
1031,0.0228,0.132,3.45,0.132,3.45,0.920650965737639,0.0,0.39038673041786714,-0.0,1.0,0.0,0.2,1.0,1.0, 1.0
1032,0.0228,0.132,3.45,0.132,3.45,0.9194006028178928,0.0,0.3933224269452422,-0.0,1.0,0.0,0.2,1.0,1.0, 1.0
1033,0.0228,0.132,3.45,0.132,3.45,0.9168023151400172,0.0,0.3993413514199405,-0.0,1.0,0.0,0.2,1.0,1.0, 1.0
1034,0.0228,0.132,3.45,0.132,3.45,0.9109981680196425,0.0,0.4124103998020115,-0.0,1.0,0.0,0.2,1.0,1.0, 1.0
1035,0.0228,0.132,3.45,0.132,3.45,0.9488065021529752,0.0,0.3158579134234823,-0.0,1.0,0.0,0.2,1.0,1.0, 1.0
1036,0.0228,0.132,3.45,0.132,3.45,0.9487406743502597,0.0,0.3160555850375288,-0.0,1.0,0.0,0.2,1.0,1.0, 1.0
1037,0.0228,0.132,3.45,0.132,3.45,0.948608795679333,0.0,0.3164511854296105,-0.0,1.0,0.0,0.2,1.0,1.0, 1.0
1038,0.0228,0.132,3.45,0.132,3.45,0.9483972592242027,0.0,0.31708459233463326,-0.0,1.0,0.0,0.2,1.0,1.0, 1.0
1039,0.0228,0.132,3.45,0.132,3.45,0.948114986380346,0.0,0.31792762163894556,-0.0,1.0,0.0,0.2,1.0,1.0, 1.0
1040,0.0228,0.132,3.45,0.132,3.45,0.947773053904458,0.0,0.3189455099113598,-0.0,1.0,0.0,0.2,1.0,1.0, 1.0
1041,0.0228,0.132,3.45,0.132,3.45,0.9473619829403135,0.0,0.3201644472445327,-0.0,1.0,0.0,0.2,1.0,1.0, 1.0
1042,0.0228,0.132,3.45,0.132,3.45,0.9468197681469452,0.0,0.32176439617547026,-0.0,1.0,0.0,0.2,1.0,1.0, 1.0
1043,0.0228,0.132,3.45,0.132,3.45,0.9459348373675978,0.0,0.3243567225360627,-0.0,1.0,0.0,0.2,1.0,1.0, 1.0
1044,0.0228,0.132,3.45,0.132,3.45,0.9440686027001817,0.0,0.32974910673984614,-0.0,1.0,0.0,0.2,1.0,1.0, 1.0
1045,0.0228,0.132,3.45,0.132,3.45,0.9398801005201977,0.0,0.34150460706430175,-0.0,1.0,0.0,0.2,1.0,1.0, 1.0
1046,0.0228,0.132,3.45,0.132,3.45,0.9689480933408827,0.0,0.24726421579166696,-0.0,1.0,0.0,0.2,1.0,1.0, 1.0
1047,0.0228,0.132,3.45,0.132,3.45,0.9689508201706148,0.0,0.24725352998631372,-0.0,1.0,0.0,0.2,1.0,1.0, 1.0
1048,0.0228,0.132,3.45,0.132,3.45,0.9689057797746494,0.0,0.2474299697273523,-0.0,1.0,0.0,0.2,1.0,1.0, 1.0
1049,0.0228,0.132,3.45,0.132,3.45,0.9688046226753034,0.0,0.2478257514524325,-0.0,1.0,0.0,0.2,1.0,1.0, 1.0
1050,0.0228,0.132,3.45,0.132,3.45,0.9686544697984975,0.0,0.24841199274469758,-0.0,1.0,0.0,0.2,1.0,1.0, 1.0
1051,0.0228,0.132,3.45,0.132,3.45,0.9684637303399907,0.0,0.24915457655028087,-0.0,1.0,0.0,0.2,1.0,1.0, 1.0
1052,0.0228,0.132,3.45,0.132,3.45,0.9682261105506008,0.0,0.2500763860264617,-0.0,1.0,0.0,0.2,1.0,1.0, 1.0
1053,0.0228,0.132,3.45,0.132,3.45,0.9679011938772273,0.0,0.25133101458243845,-0.0,1.0,0.0,0.2,1.0,1.0, 1.0
1054,0.0228,0.132,3.45,0.132,3.45,0.9673506568453961,0.0,0.2534417224941079,-0.0,1.0,0.0,0.2,1.0,1.0, 1.0
1055,0.0228,0.132,3.45,0.132,3.45,0.9661641323506529,0.0,0.25792803135586095,-0.0,1.0,0.0,0.2,1.0,1.0, 1.0
1056,0.0228,0.132,3.45,0.132,3.45,0.9634782478146399,0.0,0.26778660531854714,-0.0,1.0,0.0,0.2,1.0,1.0, 1.0
1057,0.0228,0.132,3.45,0.132,3.45,0.9841300856585491,0.0,0.17744851225551805,-0.0,1.0,0.0,0.2,1.0,1.0, 1.0
1058,0.0228,0.132,3.45,0.132,3.45,0.9841568800806999,0.0,0.17729984599492127,-0.0,1.0,0.0,0.2,1.0,1.0, 1.0
1059,0.0228,0.132,3.45,0.132,3.45,0.9841546071519616,0.0,0.17731246211580362,-0.0,1.0,0.0,0.2,1.0,1.0, 1.0
1060,0.0228,0.132,3.45,0.132,3.45,0.9841187693423373,0.0,0.17751126113045237,-0.0,1.0,0.0,0.2,1.0,1.0, 1.0
1061,0.0228,0.132,3.45,0.132,3.45,0.9840545669596397,0.0,0.177866830088907,-0.0,1.0,0.0,0.2,1.0,1.0, 1.0
1062,0.0228,0.132,3.45,0.132,3.45,0.9839677121278874,0.0,0.17834668903518028,-0.0,1.0,0.0,0.2,1.0,1.0, 1.0
1063,0.0228,0.132,3.45,0.132,3.45,0.9838549483614648,0.0,0.17896770821759792,-0.0,1.0,0.0,0.2,1.0,1.0, 1.0
1064,0.0228,0.132,3.45,0.132,3.45,0.9836934024011269,0.0,0.1798535239368268,-0.0,1.0,0.0,0.2,1.0,1.0, 1.0
1065,0.0228,0.132,3.45,0.132,3.45,0.98340865277408,0.0,0.1814040287564456,-0.0,1.0,0.0,0.2,1.0,1.0, 1.0
1066,0.0228,0.132,3.45,0.132,3.45,0.9827813190280447,0.0,0.18477250598911277,-0.0,1.0,0.0,0.2,1.0,1.0, 1.0
1067,0.0228,0.132,3.45,0.132,3.45,0.9813485627572268,0.0,0.19223682887086296,-0.0,1.0,0.0,0.2,1.0,1.0, 1.0
1068,0.0228,0.132,3.45,0.132,3.45,0.9942828296137342,0.0,0.10677853124718432,-0.0,1.0,0.0,0.2,1.0,1.0, 1.0
1069,0.0228,0.132,3.45,0.132,3.45,0.9943020559116413,0.0,0.10659935088865817,-0.0,1.0,0.0,0.2,1.0,1.0, 1.0
1070,0.0228,0.132,3.45,0.132,3.45,0.9943079596664626,0.0,0.1065442694090881,-0.0,1.0,0.0,0.2,1.0,1.0, 1.0
1071,0.0228,0.132,3.45,0.132,3.45,0.9942997576166804,0.0,0.10662078598195972,-0.0,1.0,0.0,0.2,1.0,1.0, 1.0
1072,0.0228,0.132,3.45,0.132,3.45,0.9942798466868995,0.0,0.10680630352313439,-0.0,1.0,0.0,0.2,1.0,1.0, 1.0
1073,0.0228,0.132,3.45,0.132,3.45,0.9942509905887051,0.0,0.1070745894849868,-0.0,1.0,0.0,0.2,1.0,1.0, 1.0
1074,0.0228,0.132,3.45,0.132,3.45,0.9942123473075297,0.0,0.10743280905408605,-0.0,1.0,0.0,0.2,1.0,1.0, 1.0
1075,0.0228,0.132,3.45,0.132,3.45,0.9941547861690917,0.0,0.10796416598616214,-0.0,1.0,0.0,0.2,1.0,1.0, 1.0
1076,0.0228,0.132,3.45,0.132,3.45,0.994050218199866,0.0,0.10892274187146937,-0.0,1.0,0.0,0.2,1.0,1.0, 1.0
1077,0.0228,0.132,3.45,0.132,3.45,0.9938168448847594,0.0,0.11103188201278959,-0.0,1.0,0.0,0.2,1.0,1.0, 1.0
1078,0.0228,0.132,3.45,0.132,3.45,0.993281867822544,0.0,0.11572005467920478,-0.0,1.0,0.0,0.2,1.0,1.0, 1.0
1079,0.0228,0.132,3.45,0.132,3.45,0.9993651392787817,0.0,0.03562749492037113,-0.0,1.0,0.0,0.2,1.0,1.0, 1.0
1080,0.0228,0.132,3.45,0.132,3.45,0.9993685426313996,0.0,0.035531901142388,-0.0,1.0,0.0,0.2,1.0,1.0, 1.0
1081,0.0228,0.132,3.45,0.132,3.45,0.9993696785568206,0.0,0.035499937763847474,-0.0,1.0,0.0,0.2,1.0,1.0, 1.0
1082,0.0228,0.132,3.45,0.132,3.45,0.9993688619556239,0.0,0.035522918707801235,-0.0,1.0,0.0,0.2,1.0,1.0, 1.0
1083,0.0228,0.132,3.45,0.132,3.45,0.9993665397698078,0.0,0.035588188890715126,-0.0,1.0,0.0,0.2,1.0,1.0, 1.0
1084,0.0228,0.132,3.45,0.132,3.45,0.9993631618725446,0.0,0.03568291877229311,-0.0,1.0,0.0,0.2,1.0,1.0, 1.0
1085,0.0228,0.132,3.45,0.132,3.45,0.9993586649983526,0.0,0.0358086399170693,-0.0,1.0,0.0,0.2,1.0,1.0, 1.0
1086,0.0228,0.132,3.45,0.132,3.45,0.9993519752646981,0.0,0.03599485427871937,-0.0,1.0,0.0,0.2,1.0,1.0, 1.0
1087,0.0228,0.132,3.45,0.132,3.45,0.9993398023115985,0.0,0.03633124709964018,-0.0,1.0,0.0,0.2,1.0,1.0, 1.0
1088,0.0228,0.132,3.45,0.132,3.45,0.999312833484713,0.0,0.037065628724660495,-0.0,1.0,0.0,0.2,1.0,1.0, 1.0
1089,0.0228,0.132,3.45,0.132,3.45,0.9992513736651996,0.0,0.03868710674387148,-0.0,1.0,0.0,0.2,1.0,1.0, 1.0
1090,0.0228,0.132,3.45,0.132,3.45,0.9992275071510592,0.0,-0.03929871438965813,0.0,1.0,0.0,0.2,1.0,1.0, 1.0
1091,0.0228,0.132,3.45,0.132,3.45,0.9930790935186687,0.0,-0.11744749472057466,0.0,1.0,0.0,0.2,1.0,1.0, 1.0
1092,0.0228,0.132,3.45,0.132,3.45,0.9808453805965922,0.0,-0.19478793433456368,0.0,1.0,0.0,0.2,1.0,1.0, 1.0
1093,0.0228,0.132,3.45,0.132,3.45,0.9626344855062964,0.0,-0.27080407551221974,0.0,1.0,0.0,0.2,1.0,1.0, 1.0
1094,0.0228,0.132,3.45,0.132,3.45,0.9387300437360536,0.0,-0.3446533112960134,0.0,1.0,0.0,0.2,1.0,1.0, 1.0
1095,0.0228,0.132,3.45,0.132,3.45,0.9096365384676334,0.0,-0.41540506482783957,0.0,1.0,0.0,0.2,1.0,1.0, 1.0
1096,0.0228,0.132,3.45,0.132,3.45,0.8760614449457053,0.0,-0.4821994863950429,0.0,1.0,0.0,0.2,1.0,1.0, 1.0
1097,0.0228,0.132,3.45,0.132,3.45,0.8389212379338377,0.0,-0.5442528424763231,0.0,1.0,0.0,0.2,1.0,1.0, 1.0
1098,0.0228,0.132,3.45,0.132,3.45,0.7994736367526591,0.0,-0.6007011770734907,0.0,1.0,0.0,0.2,1.0,1.0, 1.0
1099,0.0228,0.132,3.45,0.132,3.45,0.7598387873953999,0.0,-0.6501115420983451,0.0,1.0,0.0,0.2,1.0,1.0, 1.0
1100,0.0228,0.132,3.45,0.132,3.45,0.7237697455659956,0.0,-0.690041560634817,0.0,1.0,0.0,0.2,1.0,1.0, 1.0
1101,0.0228,0.132,3.45,0.132,3.45,0.9992988177581605,0.0,-0.03744159220896807,0.0,1.0,0.0,0.2,1.0,1.0, 1.0
1102,0.0228,0.132,3.45,0.132,3.45,0.9936990401740653,0.0,-0.11208129887336997,0.0,1.0,0.0,0.2,1.0,1.0, 1.0
1103,0.0228,0.132,3.45,0.132,3.45,0.9824879486710123,0.0,-0.18632614072165543,0.0,1.0,0.0,0.2,1.0,1.0, 1.0
1104,0.0228,0.132,3.45,0.132,3.45,0.9656641501068505,0.0,-0.25979366658641656,0.0,1.0,0.0,0.2,1.0,1.0, 1.0
1105,0.0228,0.132,3.45,0.132,3.45,0.9433689086896195,0.0,-0.3317455382032384,0.0,1.0,0.0,0.2,1.0,1.0, 1.0
1106,0.0228,0.132,3.45,0.132,3.45,0.9159447645236289,0.0,-0.4013043587375468,0.0,1.0,0.0,0.2,1.0,1.0, 1.0
1107,0.0228,0.132,3.45,0.132,3.45,0.8839338719370707,0.0,-0.46761192247668176,0.0,1.0,0.0,0.2,1.0,1.0, 1.0
1108,0.0228,0.132,3.45,0.132,3.45,0.8480746328454996,0.0,-0.5298767942870976,0.0,1.0,0.0,0.2,1.0,1.0, 1.0
1109,0.0228,0.132,3.45,0.132,3.45,0.8092994016021208,0.0,-0.5873963555951375,0.0,1.0,0.0,0.2,1.0,1.0, 1.0
1110,0.0228,0.132,3.45,0.132,3.45,0.7688135462630122,0.0,-0.6394730104410123,0.0,1.0,0.0,0.2,1.0,1.0, 1.0
1111,0.0228,0.132,3.45,0.132,3.45,0.72785180615429,0.0,-0.6857344590130626,0.0,1.0,0.0,0.2,1.0,1.0, 1.0
1112,0.0228,0.132,3.45,0.132,3.45,0.9993324576210585,0.0,-0.036532713354685026,0.0,1.0,0.0,0.2,1.0,1.0, 1.0
1113,0.0228,0.132,3.45,0.132,3.45,0.9939890701679245,0.0,-0.10947935141708146,0.0,1.0,0.0,0.2,1.0,1.0, 1.0
1114,0.0228,0.132,3.45,0.132,3.45,0.983257306575034,0.0,-0.18222258111114945,0.0,1.0,0.0,0.2,1.0,1.0, 1.0
1115,0.0228,0.132,3.45,0.132,3.45,0.967092407899685,0.0,-0.2544253811686034,0.0,1.0,0.0,0.2,1.0,1.0, 1.0
1116,0.0228,0.132,3.45,0.132,3.45,0.94557214126186,0.0,-0.3254125468838918,0.0,1.0,0.0,0.2,1.0,1.0, 1.0
1117,0.0228,0.132,3.45,0.132,3.45,0.9189512211804887,0.0,-0.3943712122998946,0.0,1.0,0.0,0.2,1.0,1.0, 1.0
1118,0.0228,0.132,3.45,0.132,3.45,0.8876691096994628,0.0,-0.460481869008285,0.0,1.0,0.0,0.2,1.0,1.0, 1.0
1119,0.0228,0.132,3.45,0.132,3.45,0.8523433259878496,0.0,-0.5229826523355917,0.0,1.0,0.0,0.2,1.0,1.0, 1.0
1120,0.0228,0.132,3.45,0.132,3.45,0.8137247199412116,0.0,-0.5812504452958267,0.0,1.0,0.0,0.2,1.0,1.0, 1.0
1121,0.0228,0.132,3.45,0.132,3.45,0.7725938637227108,0.0,-0.6349005605116547,0.0,1.0,0.0,0.2,1.0,1.0, 1.0
1122,0.0228,0.132,3.45,0.132,3.45,0.7294750649413709,0.0,-0.6840074046593229,0.0,1.0,0.0,0.2,1.0,1.0, 1.0
1123,0.0228,0.132,3.45,0.132,3.45,0.9993502882634016,0.0,-0.036041661280472155,0.0,1.0,0.0,0.2,1.0,1.0, 1.0
1124,0.0228,0.132,3.45,0.132,3.45,0.994140249143581,0.0,-0.10809794185246313,0.0,1.0,0.0,0.2,1.0,1.0, 1.0
1125,0.0228,0.132,3.45,0.132,3.45,0.9836585438202129,0.0,-0.1800440756301038,0.0,1.0,0.0,0.2,1.0,1.0, 1.0
1126,0.0228,0.132,3.45,0.132,3.45,0.9678434398549504,0.0,-0.25155332621481524,0.0,1.0,0.0,0.2,1.0,1.0, 1.0
1127,0.0228,0.132,3.45,0.132,3.45,0.9467405015402273,0.0,-0.3219975508344106,0.0,1.0,0.0,0.2,1.0,1.0, 1.0
1128,0.0228,0.132,3.45,0.132,3.45,0.9205527283522797,0.0,-0.39061832307659844,0.0,1.0,0.0,0.2,1.0,1.0, 1.0
1129,0.0228,0.132,3.45,0.132,3.45,0.8896488272614146,0.0,-0.45664533738163743,0.0,1.0,0.0,0.2,1.0,1.0, 1.0
1130,0.0228,0.132,3.45,0.132,3.45,0.8545553707890646,0.0,-0.5193602971498344,0.0,1.0,0.0,0.2,1.0,1.0, 1.0
1131,0.0228,0.132,3.45,0.132,3.45,0.8159090632379712,0.0,-0.5781802491664139,0.0,1.0,0.0,0.2,1.0,1.0, 1.0
1132,0.0228,0.132,3.45,0.132,3.45,0.7743390389090243,0.0,-0.6327709323455435,0.0,1.0,0.0,0.2,1.0,1.0, 1.0
1133,0.0228,0.132,3.45,0.132,3.45,0.7301939911372042,0.0,-0.6832398812328805,0.0,1.0,0.0,0.2,1.0,1.0, 1.0
1134,0.0228,0.132,3.45,0.132,3.45,0.9993616835245493,0.0,-0.035724298495257906,0.0,1.0,0.0,0.2,1.0,1.0, 1.0
1135,0.0228,0.132,3.45,0.132,3.45,0.9942358885883568,0.0,-0.1072147277332765,0.0,1.0,0.0,0.2,1.0,1.0, 1.0
1136,0.0228,0.132,3.45,0.132,3.45,0.9839142404007158,0.0,-0.17864144966015708,0.0,1.0,0.0,0.2,1.0,1.0, 1.0
1137,0.0228,0.132,3.45,0.132,3.45,0.9683294583450079,0.0,-0.24967591013404497,0.0,1.0,0.0,0.2,1.0,1.0, 1.0
1138,0.0228,0.132,3.45,0.132,3.45,0.9475095942366285,0.0,-0.31972733513032614,0.0,1.0,0.0,0.2,1.0,1.0, 1.0
1139,0.0228,0.132,3.45,0.132,3.45,0.9216210757254244,0.0,-0.3880909594137842,0.0,1.0,0.0,0.2,1.0,1.0, 1.0
