e_no,c,k1,k2,k3,k4,ax,ay,az,bx,by,bz,pvol,m_g,m_c
1,0.0228,0.132,3.45,0.132,3.45,0.061315643535337576,0.0,0.9981184257681287,-0.0,1.0,0.0,1.0,1.0,1.0, 1.0
2,0.0228,0.132,3.45,0.132,3.45,0.18309341368445495,0.0,0.9830955202142735,-0.0,1.0,0.0,1.0,1.0,1.0, 1.0
3,0.0228,0.132,3.45,0.132,3.45,0.3016188436907655,0.0,0.9534285883749477,-0.0,1.0,0.0,1.0,1.0,1.0, 1.0
4,0.0228,0.132,3.45,0.132,3.45,0.41422186769567443,0.0,0.9101759414106194,-0.0,1.0,0.0,1.0,1.0,1.0, 1.0
5,0.0228,0.132,3.45,0.132,3.45,0.5174537190556939,0.0,0.8557111946418785,-0.0,1.0,0.0,1.0,1.0,1.0, 1.0
6,0.0228,0.132,3.45,0.132,3.45,0.6069955173850573,0.0,0.7947052547167702,-0.0,1.0,0.0,1.0,1.0,1.0, 1.0
7,0.0228,0.132,3.45,0.132,3.45,0.6776692956945749,0.0,0.7353667966891209,-0.0,1.0,0.0,1.0,1.0,1.0, 1.0
8,0.0228,0.132,3.45,0.132,3.45,0.057337059299288125,0.0,0.9983548776016021,-0.0,1.0,0.0,1.0,1.0,1.0, 1.0
9,0.0228,0.132,3.45,0.132,3.45,0.17183033003127143,0.0,0.9851265592203594,-0.0,1.0,0.0,1.0,1.0,1.0, 1.0
10,0.0228,0.132,3.45,0.132,3.45,0.2847567797062895,0.0,0.9585997999224201,-0.0,1.0,0.0,1.0,1.0,1.0, 1.0
11,0.0228,0.132,3.45,0.132,3.45,0.39395155608228444,0.0,0.919131204703848,-0.0,1.0,0.0,1.0,1.0,1.0, 1.0
12,0.0228,0.132,3.45,0.132,3.45,0.49651773973299335,0.0,0.8680265745531295,-0.0,1.0,0.0,1.0,1.0,1.0, 1.0
13,0.0228,0.132,3.45,0.132,3.45,0.5893918669910532,0.0,0.8078472795799962,-0.0,1.0,0.0,1.0,1.0,1.0, 1.0
14,0.0228,0.132,3.45,0.132,3.45,0.6705022086720472,0.0,0.7419075334338547,-0.0,1.0,0.0,1.0,1.0,1.0, 1.0
15,0.0228,0.132,3.45,0.132,3.45,0.05596382148165205,0.0,0.9984327972804028,-0.0,1.0,0.0,1.0,1.0,1.0, 1.0
16,0.0228,0.132,3.45,0.132,3.45,0.16786864163220702,0.0,0.9858093726256398,-0.0,1.0,0.0,1.0,1.0,1.0, 1.0
17,0.0228,0.132,3.45,0.132,3.45,0.27866212020139475,0.0,0.9603892037944115,-0.0,1.0,0.0,1.0,1.0,1.0, 1.0
18,0.0228,0.132,3.45,0.132,3.45,0.38643501530276325,0.0,0.9223166370330491,-0.0,1.0,0.0,1.0,1.0,1.0, 1.0
19,0.0228,0.132,3.45,0.132,3.45,0.4886408863650563,0.0,0.872485005127522,-0.0,1.0,0.0,1.0,1.0,1.0, 1.0
20,0.0228,0.132,3.45,0.132,3.45,0.5829572546848635,0.0,0.8125028241244994,-0.0,1.0,0.0,1.0,1.0,1.0, 1.0
21,0.0228,0.132,3.45,0.132,3.45,0.668006905542578,0.0,0.7441550739915905,-0.0,1.0,0.0,1.0,1.0,1.0, 1.0
22,0.0228,0.132,3.45,0.132,3.45,0.05560372288024098,0.0,0.9984529162668901,-0.0,1.0,0.0,1.0,1.0,1.0, 1.0
23,0.0228,0.132,3.45,0.132,3.45,0.16679624367960094,0.0,0.9859913859128664,-0.0,1.0,0.0,1.0,1.0,1.0, 1.0
24,0.0228,0.132,3.45,0.132,3.45,0.27685692179473853,0.0,0.960911153465471,-0.0,1.0,0.0,1.0,1.0,1.0, 1.0
25,0.0228,0.132,3.45,0.132,3.45,0.38401730859514926,0.0,0.9233258940912129,-0.0,1.0,0.0,1.0,1.0,1.0, 1.0
26,0.0228,0.132,3.45,0.132,3.45,0.4860202491475368,0.0,0.8739475484367275,-0.0,1.0,0.0,1.0,1.0,1.0, 1.0
27,0.0228,0.132,3.45,0.132,3.45,0.5808107162635822,0.0,0.8140386427396334,-0.0,1.0,0.0,1.0,1.0,1.0, 1.0
28,0.0228,0.132,3.45,0.132,3.45,0.6671749952284127,0.0,0.7449010174123589,-0.0,1.0,0.0,1.0,1.0,1.0, 1.0
29,0.0228,0.132,3.45,0.132,3.45,0.0555585907633219,0.0,0.9984554286458628,-0.0,1.0,0.0,1.0,1.0,1.0, 1.0
30,0.0228,0.132,3.45,0.132,3.45,0.16661059768030811,0.0,0.9860227729320507,-0.0,1.0,0.0,1.0,1.0,1.0, 1.0
31,0.0228,0.132,3.45,0.132,3.45,0.27634582720648754,0.0,0.9610582624303078,-0.0,1.0,0.0,1.0,1.0,1.0, 1.0
32,0.0228,0.132,3.45,0.132,3.45,0.3831004183661486,0.0,0.9237067009866725,-0.0,1.0,0.0,1.0,1.0,1.0, 1.0
33,0.0228,0.132,3.45,0.132,3.45,0.4848815369588934,0.0,0.8745798391892996,-0.0,1.0,0.0,1.0,1.0,1.0, 1.0
34,0.0228,0.132,3.45,0.132,3.45,0.5798602198280354,0.0,0.8147159784004377,-0.0,1.0,0.0,1.0,1.0,1.0, 1.0
35,0.0228,0.132,3.45,0.132,3.45,0.6668188693296512,0.0,0.74521983032252,-0.0,1.0,0.0,1.0,1.0,1.0, 1.0
36,0.0228,0.132,3.45,0.132,3.45,0.05565584056268337,0.0,0.9984500124749668,-0.0,1.0,0.0,1.0,1.0,1.0, 1.0
37,0.0228,0.132,3.45,0.132,3.45,0.16678606128524526,0.0,0.9859931083739655,-0.0,1.0,0.0,1.0,1.0,1.0, 1.0
38,0.0228,0.132,3.45,0.132,3.45,0.2763289212547029,0.0,0.9610631234618319,-0.0,1.0,0.0,1.0,1.0,1.0, 1.0
39,0.0228,0.132,3.45,0.132,3.45,0.38271829570075216,0.0,0.9238650908741556,-0.0,1.0,0.0,1.0,1.0,1.0, 1.0
40,0.0228,0.132,3.45,0.132,3.45,0.4842327249601958,0.0,0.8749392367916892,-0.0,1.0,0.0,1.0,1.0,1.0, 1.0
41,0.0228,0.132,3.45,0.132,3.45,0.5792621682371084,0.0,0.815141300909998,-0.0,1.0,0.0,1.0,1.0,1.0, 1.0
42,0.0228,0.132,3.45,0.132,3.45,0.6665865955119749,0.0,0.745427602577041,-0.0,1.0,0.0,1.0,1.0,1.0, 1.0
43,0.0228,0.132,3.45,0.132,3.45,0.05590292501410232,0.0,0.998436208765922,-0.0,1.0,0.0,1.0,1.0,1.0, 1.0
44,0.0228,0.132,3.45,0.132,3.45,0.16722596703338413,0.0,0.9859185949913661,-0.0,1.0,0.0,1.0,1.0,1.0, 1.0
45,0.0228,0.132,3.45,0.132,3.45,0.2766231241189376,0.0,0.9609784842558541,-0.0,1.0,0.0,1.0,1.0,1.0, 1.0
46,0.0228,0.132,3.45,0.132,3.45,0.38265219778102216,0.0,0.9238924696810519,-0.0,1.0,0.0,1.0,1.0,1.0, 1.0
47,0.0228,0.132,3.45,0.132,3.45,0.4838594553093973,0.0,0.8751457178708545,-0.0,1.0,0.0,1.0,1.0,1.0, 1.0
48,0.0228,0.132,3.45,0.132,3.45,0.5788507837426304,0.0,0.8154334860431859,-0.0,1.0,0.0,1.0,1.0,1.0, 1.0
49,0.0228,0.132,3.45,0.132,3.45,0.6664191092091687,0.0,0.7455773406433823,-0.0,1.0,0.0,1.0,1.0,1.0, 1.0
50,0.0228,0.132,3.45,0.132,3.45,0.061249495403961386,0.0,0.9981224871290898,-0.0,1.0,0.0,1.0,1.0,1.0, 1.0
51,0.0228,0.132,3.45,0.132,3.45,0.18274767783473367,0.0,0.9831598477592606,-0.0,1.0,0.0,1.0,1.0,1.0, 1.0
52,0.0228,0.132,3.45,0.132,3.45,0.3010941933850457,0.0,0.9535944036695101,-0.0,1.0,0.0,1.0,1.0,1.0, 1.0
53,0.0228,0.132,3.45,0.132,3.45,0.4136781497875642,0.0,0.910423191921393,-0.0,1.0,0.0,1.0,1.0,1.0, 1.0
54,0.0228,0.132,3.45,0.132,3.45,0.5170162733195657,0.0,0.8559755680641522,-0.0,1.0,0.0,1.0,1.0,1.0, 1.0
55,0.0228,0.132,3.45,0.132,3.45,0.6067459246890153,0.0,0.794895831460495,-0.0,1.0,0.0,1.0,1.0,1.0, 1.0
56,0.0228,0.132,3.45,0.132,3.45,0.6775959775784283,0.0,0.7354343554454973,-0.0,1.0,0.0,1.0,1.0,1.0, 1.0
57,0.0228,0.132,3.45,0.132,3.45,0.05732817467874263,0.0,0.9983553878193895,-0.0,1.0,0.0,1.0,1.0,1.0, 1.0
58,0.0228,0.132,3.45,0.132,3.45,0.17173073963239405,0.0,0.9851439250512134,-0.0,1.0,0.0,1.0,1.0,1.0, 1.0
59,0.0228,0.132,3.45,0.132,3.45,0.2845936841226046,0.0,0.9586482331687276,-0.0,1.0,0.0,1.0,1.0,1.0, 1.0
60,0.0228,0.132,3.45,0.132,3.45,0.39377458542374094,0.0,0.9192070364582514,-0.0,1.0,0.0,1.0,1.0,1.0, 1.0
61,0.0228,0.132,3.45,0.132,3.45,0.49636736570947965,0.0,0.868112572342223,-0.0,1.0,0.0,1.0,1.0,1.0, 1.0
62,0.0228,0.132,3.45,0.132,3.45,0.5892996663938184,0.0,0.8079145395325761,-0.0,1.0,0.0,1.0,1.0,1.0, 1.0
63,0.0228,0.132,3.45,0.132,3.45,0.670473912640207,0.0,0.7419331051172553,-0.0,1.0,0.0,1.0,1.0,1.0, 1.0
64,0.0228,0.132,3.45,0.132,3.45,0.056026654369683654,0.0,0.9984292734090583,-0.0,1.0,0.0,1.0,1.0,1.0, 1.0
65,0.0228,0.132,3.45,0.132,3.45,0.16798598775149645,0.0,0.9857893831438611,-0.0,1.0,0.0,1.0,1.0,1.0, 1.0
66,0.0228,0.132,3.45,0.132,3.45,0.2788097759172841,0.0,0.9603463483832038,-0.0,1.0,0.0,1.0,1.0,1.0, 1.0
67,0.0228,0.132,3.45,0.132,3.45,0.38659572127791636,0.0,0.9222492874974789,-0.0,1.0,0.0,1.0,1.0,1.0, 1.0
68,0.0228,0.132,3.45,0.132,3.45,0.48878167355907703,0.0,0.8724061414231262,-0.0,1.0,0.0,1.0,1.0,1.0, 1.0
69,0.0228,0.132,3.45,0.132,3.45,0.5830544295117507,0.0,0.8124330940001933,-0.0,1.0,0.0,1.0,1.0,1.0, 1.0
70,0.0228,0.132,3.45,0.132,3.45,0.6680417857148987,0.0,0.7441237615738725,-0.0,1.0,0.0,1.0,1.0,1.0, 1.0
71,0.0228,0.132,3.45,0.132,3.45,0.055714534163860255,0.0,0.9984467390316341,-0.0,1.0,0.0,1.0,1.0,1.0, 1.0
72,0.0228,0.132,3.45,0.132,3.45,0.16704164876575148,0.0,0.9859498402949408,-0.0,1.0,0.0,1.0,1.0,1.0, 1.0
73,0.0228,0.132,3.45,0.132,3.45,0.2771787477637296,0.0,0.9608183708631568,-0.0,1.0,0.0,1.0,1.0,1.0, 1.0
74,0.0228,0.132,3.45,0.132,3.45,0.38435796555743457,0.0,0.923184138897842,-0.0,1.0,0.0,1.0,1.0,1.0, 1.0
75,0.0228,0.132,3.45,0.132,3.45,0.48632425030739307,0.0,0.8737784178857658,-0.0,1.0,0.0,1.0,1.0,1.0, 1.0
76,0.0228,0.132,3.45,0.132,3.45,0.5810199562615117,0.0,0.8138893109175664,-0.0,1.0,0.0,1.0,1.0,1.0, 1.0
77,0.0228,0.132,3.45,0.132,3.45,0.6672465375326341,0.0,0.7448369339329992,-0.0,1.0,0.0,1.0,1.0,1.0, 1.0
78,0.0228,0.132,3.45,0.132,3.45,0.05568392491906973,0.0,0.9984484465938176,-0.0,1.0,0.0,1.0,1.0,1.0, 1.0
79,0.0228,0.132,3.45,0.132,3.45,0.16689051198833058,0.0,0.9859754342823521,-0.0,1.0,0.0,1.0,1.0,1.0, 1.0
80,0.0228,0.132,3.45,0.132,3.45,0.27670881967791033,0.0,0.9609538121639655,-0.0,1.0,0.0,1.0,1.0,1.0, 1.0
81,0.0228,0.132,3.45,0.132,3.45,0.38347938445782953,0.0,0.923549436519694,-0.0,1.0,0.0,1.0,1.0,1.0, 1.0
82,0.0228,0.132,3.45,0.132,3.45,0.48521811784138597,0.0,0.8743931484855442,-0.0,1.0,0.0,1.0,1.0,1.0, 1.0
83,0.0228,0.132,3.45,0.132,3.45,0.5800899897531837,0.0,0.8145523947470482,-0.0,1.0,0.0,1.0,1.0,1.0, 1.0
84,0.0228,0.132,3.45,0.132,3.45,0.6668967518346698,0.0,0.745150134128933,-0.0,1.0,0.0,1.0,1.0,1.0, 1.0
85,0.0228,0.132,3.45,0.132,3.45,0.055760681278046016,0.0,0.9984441628971588,-0.0,1.0,0.0,1.0,1.0,1.0, 1.0
86,0.0228,0.132,3.45,0.132,3.45,0.1670109809547439,0.0,0.9859550356078791,-0.0,1.0,0.0,1.0,1.0,1.0, 1.0
87,0.0228,0.132,3.45,0.132,3.45,0.2766142252027852,0.0,0.9609810458148813,-0.0,1.0,0.0,1.0,1.0,1.0, 1.0
88,0.0228,0.132,3.45,0.132,3.45,0.3830169663963562,0.0,0.9237413076465362,-0.0,1.0,0.0,1.0,1.0,1.0, 1.0
89,0.0228,0.132,3.45,0.132,3.45,0.4844932807747309,0.0,0.8747949822010513,-0.0,1.0,0.0,1.0,1.0,1.0, 1.0
90,0.0228,0.132,3.45,0.132,3.45,0.5794327715873389,0.0,0.8150200385331731,-0.0,1.0,0.0,1.0,1.0,1.0, 1.0
91,0.0228,0.132,3.45,0.132,3.45,0.6666435437391166,0.0,0.7453766736294828,-0.0,1.0,0.0,1.0,1.0,1.0, 1.0
92,0.0228,0.132,3.45,0.132,3.45,0.0559457145333756,0.0,0.9984338120403125,-0.0,1.0,0.0,1.0,1.0,1.0, 1.0
93,0.0228,0.132,3.45,0.132,3.45,0.1673141065296976,0.0,0.9859036412125523,-0.0,1.0,0.0,1.0,1.0,1.0, 1.0
94,0.0228,0.132,3.45,0.132,3.45,0.27673341318334255,0.0,0.960946730067748,-0.0,1.0,0.0,1.0,1.0,1.0, 1.0
95,0.0228,0.132,3.45,0.132,3.45,0.3827697829794659,0.0,0.9238437601877564,-0.0,1.0,0.0,1.0,1.0,1.0, 1.0
96,0.0228,0.132,3.45,0.132,3.45,0.48395926219944685,0.0,0.8750905281920076,-0.0,1.0,0.0,1.0,1.0,1.0, 1.0
97,0.0228,0.132,3.45,0.132,3.45,0.5789119453601018,0.0,0.8153900658699382,-0.0,1.0,0.0,1.0,1.0,1.0, 1.0
98,0.0228,0.132,3.45,0.132,3.45,0.6664399785425137,0.0,0.7455586864897049,-0.0,1.0,0.0,1.0,1.0,1.0, 1.0
99,0.0228,0.132,3.45,0.132,3.45,0.9976480666651762,0.0,0.06854440224581274,-0.0,1.0,0.0,1.0,1.0,1.0, 1.0
100,0.0228,0.132,3.45,0.132,3.45,0.9790921494652705,0.0,0.20341721376392013,-0.0,1.0,0.0,1.0,1.0,1.0, 1.0
101,0.0228,0.132,3.45,0.132,3.45,0.943165363633088,0.0,0.3323237831435859,-0.0,1.0,0.0,1.0,1.0,1.0, 1.0
102,0.0228,0.132,3.45,0.132,3.45,0.8921126079922529,0.0,0.4518131191778974,-0.0,1.0,0.0,1.0,1.0,1.0, 1.0
103,0.0228,0.132,3.45,0.132,3.45,0.8300832548324331,0.0,0.5576394803515924,-0.0,1.0,0.0,1.0,1.0,1.0, 1.0
104,0.0228,0.132,3.45,0.132,3.45,0.7644048949648796,0.0,0.6447365016452313,-0.0,1.0,0.0,1.0,1.0,1.0, 1.0
105,0.0228,0.132,3.45,0.132,3.45,0.7074272123112619,0.0,0.7067862047900461,-0.0,1.0,0.0,1.0,1.0,1.0, 1.0
106,0.0228,0.132,3.45,0.132,3.45,0.9966121025953184,0.0,0.08224546772034791,-0.0,1.0,0.0,1.0,1.0,1.0, 1.0
107,0.0228,0.132,3.45,0.132,3.45,0.9706067029088502,0.0,0.2406712036543031,-0.0,1.0,0.0,1.0,1.0,1.0, 1.0
108,0.0228,0.132,3.45,0.132,3.45,0.9224548220665797,0.0,0.3861050391358737,-0.0,1.0,0.0,1.0,1.0,1.0, 1.0
109,0.0228,0.132,3.45,0.132,3.45,0.8575959862614992,0.0,0.5143239488378568,-0.0,1.0,0.0,1.0,1.0,1.0, 1.0
110,0.0228,0.132,3.45,0.132,3.45,0.7831506181241742,0.0,0.6218320587841416,-0.0,1.0,0.0,1.0,1.0,1.0, 1.0
111,0.0228,0.132,3.45,0.132,3.45,0.7086312374632426,0.0,0.7055790312157195,-0.0,1.0,0.0,1.0,1.0,1.0, 1.0
112,0.0228,0.132,3.45,0.132,3.45,0.6462320071835833,0.0,0.7631410045931728,-0.0,1.0,0.0,1.0,1.0,1.0, 1.0
113,0.0228,0.132,3.45,0.132,3.45,0.9946105255426578,0.0,0.10368173648120495,-0.0,1.0,0.0,1.0,1.0,1.0, 1.0
114,0.0228,0.132,3.45,0.132,3.45,0.954924455360174,0.0,0.2968489254740109,-0.0,1.0,0.0,1.0,1.0,1.0, 1.0
115,0.0228,0.132,3.45,0.132,3.45,0.8864547344753587,0.0,0.4628153019577262,-0.0,1.0,0.0,1.0,1.0,1.0, 1.0
116,0.0228,0.132,3.45,0.132,3.45,0.8015537981820398,0.0,0.5979226610690935,-0.0,1.0,0.0,1.0,1.0,1.0, 1.0
117,0.0228,0.132,3.45,0.132,3.45,0.7116452611856781,0.0,0.7025389827133923,-0.0,1.0,0.0,1.0,1.0,1.0, 1.0
118,0.0228,0.132,3.45,0.132,3.45,0.6276719859534178,0.0,0.7784779239318818,-0.0,1.0,0.0,1.0,1.0,1.0, 1.0
119,0.0228,0.132,3.45,0.132,3.45,0.5604808529505979,0.0,0.8281673825234668,-0.0,1.0,0.0,1.0,1.0,1.0, 1.0
120,0.0228,0.132,3.45,0.132,3.45,0.9905806332321273,0.0,0.13693067247858473,-0.0,1.0,0.0,1.0,1.0,1.0, 1.0
121,0.0228,0.132,3.45,0.132,3.45,0.9254445720638973,0.0,0.37888302157456183,-0.0,1.0,0.0,1.0,1.0,1.0, 1.0
122,0.0228,0.132,3.45,0.132,3.45,0.8251983547726893,0.0,0.564843053671059,-0.0,1.0,0.0,1.0,1.0,1.0, 1.0
123,0.0228,0.132,3.45,0.132,3.45,0.7157081910784712,0.0,0.6983994453199277,-0.0,1.0,0.0,1.0,1.0,1.0, 1.0
124,0.0228,0.132,3.45,0.132,3.45,0.6120395024103962,0.0,0.7908271919257928,-0.0,1.0,0.0,1.0,1.0,1.0, 1.0
125,0.0228,0.132,3.45,0.132,3.45,0.5231220647499916,0.0,0.8522577693231699,-0.0,1.0,0.0,1.0,1.0,1.0, 1.0
126,0.0228,0.132,3.45,0.132,3.45,0.45604545355074994,0.0,0.8899564844955572,-0.0,1.0,0.0,1.0,1.0,1.0, 1.0
127,0.0228,0.132,3.45,0.132,3.45,0.981065899784822,0.0,0.1936742117045989,-0.0,1.0,0.0,1.0,1.0,1.0, 1.0
128,0.0228,0.132,3.45,0.132,3.45,0.8641593888087354,0.0,0.50321819396134,-0.0,1.0,0.0,1.0,1.0,1.0, 1.0
129,0.0228,0.132,3.45,0.132,3.45,0.7178729768864969,0.0,0.6961741082919698,-0.0,1.0,0.0,1.0,1.0,1.0, 1.0
130,0.0228,0.132,3.45,0.132,3.45,0.5868713000226278,0.0,0.8096802314554499,-0.0,1.0,0.0,1.0,1.0,1.0, 1.0
131,0.0228,0.132,3.45,0.132,3.45,0.47965654707504335,0.0,0.877456321903288,-0.0,1.0,0.0,1.0,1.0,1.0, 1.0
132,0.0228,0.132,3.45,0.132,3.45,0.39630674899582663,0.0,0.9181181627112923,-0.0,1.0,0.0,1.0,1.0,1.0, 1.0
133,0.0228,0.132,3.45,0.132,3.45,0.33716483948135473,0.0,0.9414456282853049,-0.0,1.0,0.0,1.0,1.0,1.0, 1.0
134,0.0228,0.132,3.45,0.132,3.45,0.9491043005946559,0.0,0.3149619446738434,-0.0,1.0,0.0,1.0,1.0,1.0, 1.0
135,0.0228,0.132,3.45,0.132,3.45,0.7157747013034423,0.0,0.6983312802488286,-0.0,1.0,0.0,1.0,1.0,1.0, 1.0
136,0.0228,0.132,3.45,0.132,3.45,0.5253863201097221,0.0,0.8508638049897085,-0.0,1.0,0.0,1.0,1.0,1.0, 1.0
137,0.0228,0.132,3.45,0.132,3.45,0.39869185091109177,0.0,0.9170849513633335,-0.0,1.0,0.0,1.0,1.0,1.0, 1.0
138,0.0228,0.132,3.45,0.132,3.45,0.3110830933899764,0.0,0.9503827171234351,-0.0,1.0,0.0,1.0,1.0,1.0, 1.0
139,0.0228,0.132,3.45,0.132,3.45,0.2490387814267955,0.0,0.9684935133213112,-0.0,1.0,0.0,1.0,1.0,1.0, 1.0
140,0.0228,0.132,3.45,0.132,3.45,0.2073570775330502,0.0,0.9782653231086915,-0.0,1.0,0.0,1.0,1.0,1.0, 1.0
141,0.0228,0.132,3.45,0.132,3.45,0.7101218827239878,0.0,0.7040787680909991,-0.0,1.0,0.0,1.0,1.0,1.0, 1.0
142,0.0228,0.132,3.45,0.132,3.45,0.32543943742396214,0.0,0.9455628866284753,-0.0,1.0,0.0,1.0,1.0,1.0, 1.0
143,0.0228,0.132,3.45,0.132,3.45,0.2034598614967089,0.0,0.9790832879585578,-0.0,1.0,0.0,1.0,1.0,1.0, 1.0
144,0.0228,0.132,3.45,0.132,3.45,0.14482310478631646,0.0,0.9894575626675718,-0.0,1.0,0.0,1.0,1.0,1.0, 1.0
145,0.0228,0.132,3.45,0.132,3.45,0.10928188686116826,0.0,0.9940107993397571,-0.0,1.0,0.0,1.0,1.0,1.0, 1.0
146,0.0228,0.132,3.45,0.132,3.45,0.08546381927371835,0.0,0.9963412746620253,-0.0,1.0,0.0,1.0,1.0,1.0, 1.0
147,0.0228,0.132,3.45,0.132,3.45,0.0700593538168289,0.0,0.9975428246159501,-0.0,1.0,0.0,1.0,1.0,1.0, 1.0
148,0.0228,0.132,3.45,0.132,3.45,0.9976514117557157,0.0,0.06849569783444179,-0.0,1.0,0.0,1.0,1.0,1.0, 1.0
149,0.0228,0.132,3.45,0.132,3.45,0.979196373006202,0.0,0.20291491589210175,-0.0,1.0,0.0,1.0,1.0,1.0, 1.0
150,0.0228,0.132,3.45,0.132,3.45,0.9434717735737149,0.0,0.33145288122094935,-0.0,1.0,0.0,1.0,1.0,1.0, 1.0
151,0.0228,0.132,3.45,0.132,3.45,0.8925809442364822,0.0,0.4508871898667225,-0.0,1.0,0.0,1.0,1.0,1.0, 1.0
152,0.0228,0.132,3.45,0.132,3.45,0.8305374476589179,0.0,0.556962788735666,-0.0,1.0,0.0,1.0,1.0,1.0, 1.0
153,0.0228,0.132,3.45,0.132,3.45,0.7646572173395807,0.0,0.6444372273313276,-0.0,1.0,0.0,1.0,1.0,1.0, 1.0
154,0.0228,0.132,3.45,0.132,3.45,0.7074445592265831,0.0,0.7067688417160914,-0.0,1.0,0.0,1.0,1.0,1.0, 1.0
155,0.0228,0.132,3.45,0.132,3.45,0.9966114416907921,0.0,0.08225347585969192,-0.0,1.0,0.0,1.0,1.0,1.0, 1.0
156,0.0228,0.132,3.45,0.132,3.45,0.9707210904846825,0.0,0.24020941798403544,-0.0,1.0,0.0,1.0,1.0,1.0, 1.0
157,0.0228,0.132,3.45,0.132,3.45,0.9228187225730589,0.0,0.3852344808926479,-0.0,1.0,0.0,1.0,1.0,1.0, 1.0
158,0.0228,0.132,3.45,0.132,3.45,0.8581349326941733,0.0,0.5134242274084527,-0.0,1.0,0.0,1.0,1.0,1.0, 1.0
159,0.0228,0.132,3.45,0.132,3.45,0.7835945346593735,0.0,0.6212725692093285,-0.0,1.0,0.0,1.0,1.0,1.0, 1.0
160,0.0228,0.132,3.45,0.132,3.45,0.7087508928619446,0.0,0.7054588378264152,-0.0,1.0,0.0,1.0,1.0,1.0, 1.0
161,0.0228,0.132,3.45,0.132,3.45,0.6460485746054071,0.0,0.763296298464968,-0.0,1.0,0.0,1.0,1.0,1.0, 1.0
162,0.0228,0.132,3.45,0.132,3.45,0.9946069613280495,0.0,0.10371592200710564,-0.0,1.0,0.0,1.0,1.0,1.0, 1.0
163,0.0228,0.132,3.45,0.132,3.45,0.9549883333242569,0.0,0.2966433603075551,-0.0,1.0,0.0,1.0,1.0,1.0, 1.0
164,0.0228,0.132,3.45,0.132,3.45,0.8866717188871499,0.0,0.4623994625058586,-0.0,1.0,0.0,1.0,1.0,1.0, 1.0
165,0.0228,0.132,3.45,0.132,3.45,0.8018501600173377,0.0,0.597525163386589,-0.0,1.0,0.0,1.0,1.0,1.0, 1.0
166,0.0228,0.132,3.45,0.132,3.45,0.7117948888216066,0.0,0.702387383320228,-0.0,1.0,0.0,1.0,1.0,1.0, 1.0
167,0.0228,0.132,3.45,0.132,3.45,0.6274611105690628,0.0,0.7786479016368298,-0.0,1.0,0.0,1.0,1.0,1.0, 1.0
168,0.0228,0.132,3.45,0.132,3.45,0.560002648078466,0.0,0.8284908171760902,-0.0,1.0,0.0,1.0,1.0,1.0, 1.0
169,0.0228,0.132,3.45,0.132,3.45,0.9905825144735211,0.0,0.13691706255728833,-0.0,1.0,0.0,1.0,1.0,1.0, 1.0
170,0.0228,0.132,3.45,0.132,3.45,0.9253113180135061,0.0,0.3792083395128702,-0.0,1.0,0.0,1.0,1.0,1.0, 1.0
171,0.0228,0.132,3.45,0.132,3.45,0.8249210142165335,0.0,0.5652480166298383,-0.0,1.0,0.0,1.0,1.0,1.0, 1.0
172,0.0228,0.132,3.45,0.132,3.45,0.7153565241009808,0.0,0.6987596463922074,-0.0,1.0,0.0,1.0,1.0,1.0, 1.0
173,0.0228,0.132,3.45,0.132,3.45,0.6115425652385864,0.0,0.7912115335998391,-0.0,1.0,0.0,1.0,1.0,1.0, 1.0
174,0.0228,0.132,3.45,0.132,3.45,0.5224748787797373,0.0,0.8526546786619416,-0.0,1.0,0.0,1.0,1.0,1.0, 1.0
175,0.0228,0.132,3.45,0.132,3.45,0.455314322484132,0.0,0.8903307631104385,-0.0,1.0,0.0,1.0,1.0,1.0, 1.0
176,0.0228,0.132,3.45,0.132,3.45,0.9810582435836472,0.0,0.19371299052094834,-0.0,1.0,0.0,1.0,1.0,1.0, 1.0
177,0.0228,0.132,3.45,0.132,3.45,0.8635902028260851,0.0,0.5041943688527283,-0.0,1.0,0.0,1.0,1.0,1.0, 1.0
178,0.0228,0.132,3.45,0.132,3.45,0.716640761307798,0.0,0.6974424845334415,-0.0,1.0,0.0,1.0,1.0,1.0, 1.0
179,0.0228,0.132,3.45,0.132,3.45,0.5855213427565021,0.0,0.810656991073674,-0.0,1.0,0.0,1.0,1.0,1.0, 1.0
180,0.0228,0.132,3.45,0.132,3.45,0.4784902507302712,0.0,0.8780928652233101,-0.0,1.0,0.0,1.0,1.0,1.0, 1.0
181,0.0228,0.132,3.45,0.132,3.45,0.3952926258574729,0.0,0.9185552459937857,-0.0,1.0,0.0,1.0,1.0,1.0, 1.0
182,0.0228,0.132,3.45,0.132,3.45,0.33636513368969817,0.0,0.9417316479963448,-0.0,1.0,0.0,1.0,1.0,1.0, 1.0
183,0.0228,0.132,3.45,0.132,3.45,0.9490629054661879,0.0,0.31508665707718814,-0.0,1.0,0.0,1.0,1.0,1.0, 1.0
184,0.0228,0.132,3.45,0.132,3.45,0.7142218336060879,0.0,0.6999194042176269,-0.0,1.0,0.0,1.0,1.0,1.0, 1.0
185,0.0228,0.132,3.45,0.132,3.45,0.5230735435290637,0.0,0.8522875501026334,-0.0,1.0,0.0,1.0,1.0,1.0, 1.0
186,0.0228,0.132,3.45,0.132,3.45,0.3967054751107659,0.0,0.9179459493985153,-0.0,1.0,0.0,1.0,1.0,1.0, 1.0
187,0.0228,0.132,3.45,0.132,3.45,0.30973098615807015,0.0,0.950824229925568,-0.0,1.0,0.0,1.0,1.0,1.0, 1.0
188,0.0228,0.132,3.45,0.132,3.45,0.24816404764234964,0.0,0.9687180216439486,-0.0,1.0,0.0,1.0,1.0,1.0, 1.0
189,0.0228,0.132,3.45,0.132,3.45,0.2067711657342729,0.0,0.9783893320252882,-0.0,1.0,0.0,1.0,1.0,1.0, 1.0
190,0.0228,0.132,3.45,0.132,3.45,0.7096275792692949,0.0,0.704576964383878,-0.0,1.0,0.0,1.0,1.0,1.0, 1.0
191,0.0228,0.132,3.45,0.132,3.45,0.32323368697766053,0.0,0.9463191763896722,-0.0,1.0,0.0,1.0,1.0,1.0, 1.0
192,0.0228,0.132,3.45,0.132,3.45,0.20174585026765704,0.0,0.9794379060970533,-0.0,1.0,0.0,1.0,1.0,1.0, 1.0
193,0.0228,0.132,3.45,0.132,3.45,0.14371809240516706,0.0,0.9896186689404256,-0.0,1.0,0.0,1.0,1.0,1.0, 1.0
194,0.0228,0.132,3.45,0.132,3.45,0.10866059814139599,0.0,0.9940789075378041,-0.0,1.0,0.0,1.0,1.0,1.0, 1.0
195,0.0228,0.132,3.45,0.132,3.45,0.08527319551777279,0.0,0.9963576075517202,-0.0,1.0,0.0,1.0,1.0,1.0, 1.0
196,0.0228,0.132,3.45,0.132,3.45,0.06993534641540759,0.0,0.9975515261487784,-0.0,1.0,0.0,1.0,1.0,1.0, 1.0
197,0.0228,0.132,3.45,0.132,3.45,0.7455773406433822,0.0,0.6664191092091687,-0.0,1.0,0.0,1.0,1.0,1.0, 1.0
198,0.0228,0.132,3.45,0.132,3.45,0.7454276025770409,0.0,0.6665865955119749,-0.0,1.0,0.0,1.0,1.0,1.0, 1.0
199,0.0228,0.132,3.45,0.132,3.45,0.7452198303225199,0.0,0.6668188693296513,-0.0,1.0,0.0,1.0,1.0,1.0, 1.0
200,0.0228,0.132,3.45,0.132,3.45,0.7449068087312549,0.0,0.6671685291632226,-0.0,1.0,0.0,1.0,1.0,1.0, 1.0
201,0.0228,0.132,3.45,0.132,3.45,0.744175618032786,0.0,0.6679840189147649,-0.0,1.0,0.0,1.0,1.0,1.0, 1.0
202,0.0228,0.132,3.45,0.132,3.45,0.7419783894697163,0.0,0.6704237984737162,-0.0,1.0,0.0,1.0,1.0,1.0, 1.0
203,0.0228,0.132,3.45,0.132,3.45,0.735603328937485,0.0,0.6774125349121393,-0.0,1.0,0.0,1.0,1.0,1.0, 1.0
204,0.0228,0.132,3.45,0.132,3.45,0.8154334860431859,0.0,0.5788507837426304,-0.0,1.0,0.0,1.0,1.0,1.0, 1.0
205,0.0228,0.132,3.45,0.132,3.45,0.815141300909998,0.0,0.5792621682371083,-0.0,1.0,0.0,1.0,1.0,1.0, 1.0
206,0.0228,0.132,3.45,0.132,3.45,0.8147159784004377,0.0,0.5798602198280354,-0.0,1.0,0.0,1.0,1.0,1.0, 1.0
207,0.0228,0.132,3.45,0.132,3.45,0.8140457003042291,0.0,0.5808008245657004,-0.0,1.0,0.0,1.0,1.0,1.0, 1.0
208,0.0228,0.132,3.45,0.132,3.45,0.8125314787278314,0.0,0.5829173149567302,-0.0,1.0,0.0,1.0,1.0,1.0, 1.0
209,0.0228,0.132,3.45,0.132,3.45,0.807963187176272,0.0,0.5892329659548594,-0.0,1.0,0.0,1.0,1.0,1.0, 1.0
210,0.0228,0.132,3.45,0.132,3.45,0.7951277415481968,0.0,0.6064419795994205,-0.0,1.0,0.0,1.0,1.0,1.0, 1.0
211,0.0228,0.132,3.45,0.132,3.45,0.8751457178708545,0.0,0.4838594553093971,-0.0,1.0,0.0,1.0,1.0,1.0, 1.0
212,0.0228,0.132,3.45,0.132,3.45,0.8749392367916892,0.0,0.48423272496019565,-0.0,1.0,0.0,1.0,1.0,1.0, 1.0
213,0.0228,0.132,3.45,0.132,3.45,0.8745806194433962,0.0,0.4848801296135007,-0.0,1.0,0.0,1.0,1.0,1.0, 1.0
214,0.0228,0.132,3.45,0.132,3.45,0.8739529245615081,0.0,0.4860105818296418,-0.0,1.0,0.0,1.0,1.0,1.0, 1.0
215,0.0228,0.132,3.45,0.132,3.45,0.8725200046383768,0.0,0.48857838829183486,-0.0,1.0,0.0,1.0,1.0,1.0, 1.0
216,0.0228,0.132,3.45,0.132,3.45,0.8681922994809433,0.0,0.4962279024017007,-0.0,1.0,0.0,1.0,1.0,1.0, 1.0
217,0.0228,0.132,3.45,0.132,3.45,0.856338454888388,0.0,0.5164149985034984,-0.0,1.0,0.0,1.0,1.0,1.0, 1.0
218,0.0228,0.132,3.45,0.132,3.45,0.9238924696810519,0.0,0.38265219778102216,-0.0,1.0,0.0,1.0,1.0,1.0, 1.0
219,0.0228,0.132,3.45,0.132,3.45,0.9238653074492001,0.0,0.3827177728977252,-0.0,1.0,0.0,1.0,1.0,1.0, 1.0
220,0.0228,0.132,3.45,0.132,3.45,0.9237082207419325,0.0,0.3830967540110112,-0.0,1.0,0.0,1.0,1.0,1.0, 1.0
221,0.0228,0.132,3.45,0.132,3.45,0.9233340122726142,0.0,0.3839977887703987,-0.0,1.0,0.0,1.0,1.0,1.0, 1.0
222,0.0228,0.132,3.45,0.132,3.45,0.9223569400022346,0.0,0.3863388088578655,-0.0,1.0,0.0,1.0,1.0,1.0, 1.0
223,0.0228,0.132,3.45,0.132,3.45,0.9193158559233708,0.0,0.3935204658564535,-0.0,1.0,0.0,1.0,1.0,1.0, 1.0
224,0.0228,0.132,3.45,0.132,3.45,0.910879692954168,0.0,0.41267200651815533,-0.0,1.0,0.0,1.0,1.0,1.0, 1.0
225,0.0228,0.132,3.45,0.132,3.45,0.9609784842558541,0.0,0.2766231241189375,-0.0,1.0,0.0,1.0,1.0,1.0, 1.0
226,0.0228,0.132,3.45,0.132,3.45,0.9610632861108694,0.0,0.2763283555659408,-0.0,1.0,0.0,1.0,1.0,1.0, 1.0
227,0.0228,0.132,3.45,0.132,3.45,0.9610594033087805,0.0,0.2763418594997343,-0.0,1.0,0.0,1.0,1.0,1.0, 1.0
228,0.0228,0.132,3.45,0.132,3.45,0.9609173681932922,0.0,0.27683535089377004,-0.0,1.0,0.0,1.0,1.0,1.0, 1.0
229,0.0228,0.132,3.45,0.132,3.45,0.9604203621456863,0.0,0.2785547127153817,-0.0,1.0,0.0,1.0,1.0,1.0, 1.0
230,0.0228,0.132,3.45,0.132,3.45,0.9587459065556364,0.0,0.2842644660572458,-0.0,1.0,0.0,1.0,1.0,1.0, 1.0
231,0.0228,0.132,3.45,0.132,3.45,0.9539877509545129,0.0,0.2998455786379886,-0.0,1.0,0.0,1.0,1.0,1.0, 1.0
232,0.0228,0.132,3.45,0.132,3.45,0.9859185949913661,0.0,0.16722596703338413,-0.0,1.0,0.0,1.0,1.0,1.0, 1.0
233,0.0228,0.132,3.45,0.132,3.45,0.9859931083739655,0.0,0.16678606128524526,-0.0,1.0,0.0,1.0,1.0,1.0, 1.0
234,0.0228,0.132,3.45,0.132,3.45,0.9860232769624188,0.0,0.1666076147368215,-0.0,1.0,0.0,1.0,1.0,1.0, 1.0
235,0.0228,0.132,3.45,0.132,3.45,0.9859942270384513,0.0,0.16677944791504462,-0.0,1.0,0.0,1.0,1.0,1.0, 1.0
236,0.0228,0.132,3.45,0.132,3.45,0.9858240011540861,0.0,0.1677827129013848,-0.0,1.0,0.0,1.0,1.0,1.0, 1.0
237,0.0228,0.132,3.45,0.132,3.45,0.9851963539719863,0.0,0.17142970606141886,-0.0,1.0,0.0,1.0,1.0,1.0, 1.0
238,0.0228,0.132,3.45,0.132,3.45,0.9833629462953267,0.0,0.18165163322517755,-0.0,1.0,0.0,1.0,1.0,1.0, 1.0
239,0.0228,0.132,3.45,0.132,3.45,0.998436208765922,0.0,0.05590292501410232,-0.0,1.0,0.0,1.0,1.0,1.0, 1.0
240,0.0228,0.132,3.45,0.132,3.45,0.9984500124749668,0.0,0.05565584056268337,-0.0,1.0,0.0,1.0,1.0,1.0, 1.0
241,0.0228,0.132,3.45,0.132,3.45,0.99845549662393,0.0,0.05555736910133012,-0.0,1.0,0.0,1.0,1.0,1.0, 1.0
242,0.0228,0.132,3.45,0.132,3.45,0.9984532927189561,0.0,0.055596962674902106,-0.0,1.0,0.0,1.0,1.0,1.0, 1.0
243,0.0228,0.132,3.45,0.132,3.45,0.9984346585226654,0.0,0.055930605760426425,-0.0,1.0,0.0,1.0,1.0,1.0, 1.0
244,0.0228,0.132,3.45,0.132,3.45,0.9983636972360174,0.0,0.057183284631347656,-0.0,1.0,0.0,1.0,1.0,1.0, 1.0
245,0.0228,0.132,3.45,0.132,3.45,0.9981523088553426,0.0,0.06076156948885277,-0.0,1.0,0.0,1.0,1.0,1.0, 1.0
246,0.0228,0.132,3.45,0.132,3.45,0.7455586864897047,0.0,0.6664399785425138,-0.0,1.0,0.0,1.0,1.0,1.0, 1.0
247,0.0228,0.132,3.45,0.132,3.45,0.7453766736294828,0.0,0.6666435437391166,-0.0,1.0,0.0,1.0,1.0,1.0, 1.0
248,0.0228,0.132,3.45,0.132,3.45,0.7451501341289329,0.0,0.6668967518346699,-0.0,1.0,0.0,1.0,1.0,1.0, 1.0
249,0.0228,0.132,3.45,0.132,3.45,0.7448417818077732,0.0,0.6672411258858537,-0.0,1.0,0.0,1.0,1.0,1.0, 1.0
250,0.0228,0.132,3.45,0.132,3.45,0.7441409867813982,0.0,0.6680225982644652,-0.0,1.0,0.0,1.0,1.0,1.0, 1.0
251,0.0228,0.132,3.45,0.132,3.45,0.742000105557779,0.0,0.6703997638366564,-0.0,1.0,0.0,1.0,1.0,1.0, 1.0
252,0.0228,0.132,3.45,0.132,3.45,0.735670965505232,0.0,0.6773390808986293,-0.0,1.0,0.0,1.0,1.0,1.0, 1.0
253,0.0228,0.132,3.45,0.132,3.45,0.8153900658699385,0.0,0.5789119453601017,-0.0,1.0,0.0,1.0,1.0,1.0, 1.0
254,0.0228,0.132,3.45,0.132,3.45,0.815020038533173,0.0,0.5794327715873389,-0.0,1.0,0.0,1.0,1.0,1.0, 1.0
255,0.0228,0.132,3.45,0.132,3.45,0.8145523947470482,0.0,0.5800899897531837,-0.0,1.0,0.0,1.0,1.0,1.0, 1.0
256,0.0228,0.132,3.45,0.132,3.45,0.8138952224539265,0.0,0.5810116753273324,-0.0,1.0,0.0,1.0,1.0,1.0, 1.0
257,0.0228,0.132,3.45,0.132,3.45,0.8124566366743364,0.0,0.583021623547382,-0.0,1.0,0.0,1.0,1.0,1.0, 1.0
258,0.0228,0.132,3.45,0.132,3.45,0.8080211016698648,0.0,0.5891535447200653,-0.0,1.0,0.0,1.0,1.0,1.0, 1.0
259,0.0228,0.132,3.45,0.132,3.45,0.7953314842684229,0.0,0.6061747521395024,-0.0,1.0,0.0,1.0,1.0,1.0, 1.0
260,0.0228,0.132,3.45,0.132,3.45,0.8750905281920076,0.0,0.48395926219944707,-0.0,1.0,0.0,1.0,1.0,1.0, 1.0
261,0.0228,0.132,3.45,0.132,3.45,0.8747949822010515,0.0,0.48449328077473075,-0.0,1.0,0.0,1.0,1.0,1.0, 1.0
262,0.0228,0.132,3.45,0.132,3.45,0.8743938007577738,0.0,0.4852169424045025,-0.0,1.0,0.0,1.0,1.0,1.0, 1.0
263,0.0228,0.132,3.45,0.132,3.45,0.873782923388661,0.0,0.4863161551854571,-0.0,1.0,0.0,1.0,1.0,1.0, 1.0
264,0.0228,0.132,3.45,0.132,3.45,0.8724381671798068,0.0,0.4887245077218245,-0.0,1.0,0.0,1.0,1.0,1.0, 1.0
265,0.0228,0.132,3.45,0.132,3.45,0.8682745100737795,0.0,0.49608404041667986,-0.0,1.0,0.0,1.0,1.0,1.0, 1.0
266,0.0228,0.132,3.45,0.132,3.45,0.8566289896170812,0.0,0.515932916324999,-0.0,1.0,0.0,1.0,1.0,1.0, 1.0
267,0.0228,0.132,3.45,0.132,3.45,0.9238437601877563,0.0,0.38276978297946596,-0.0,1.0,0.0,1.0,1.0,1.0, 1.0
268,0.0228,0.132,3.45,0.132,3.45,0.9237414882092226,0.0,0.3830165309239414,-0.0,1.0,0.0,1.0,1.0,1.0, 1.0
269,0.0228,0.132,3.45,0.132,3.45,0.923550707925213,0.0,0.3834763224644224,-0.0,1.0,0.0,1.0,1.0,1.0, 1.0
270,0.0228,0.132,3.45,0.132,3.45,0.9231909464539727,0.0,0.3843416141734045,-0.0,1.0,0.0,1.0,1.0,1.0, 1.0
271,0.0228,0.132,3.45,0.132,3.45,0.9222879811981022,0.0,0.3865034019740694,-0.0,1.0,0.0,1.0,1.0,1.0, 1.0
272,0.0228,0.132,3.45,0.132,3.45,0.9193931597492773,0.0,0.39333982484137037,-0.0,1.0,0.0,1.0,1.0,1.0, 1.0
273,0.0228,0.132,3.45,0.132,3.45,0.9111539855094367,0.0,0.4120660319539444,-0.0,1.0,0.0,1.0,1.0,1.0, 1.0
274,0.0228,0.132,3.45,0.132,3.45,0.960946730067748,0.0,0.2767334131833425,-0.0,1.0,0.0,1.0,1.0,1.0, 1.0
275,0.0228,0.132,3.45,0.132,3.45,0.9609811815027987,0.0,0.27661375381113085,-0.0,1.0,0.0,1.0,1.0,1.0, 1.0
276,0.0228,0.132,3.45,0.132,3.45,0.9609547673555233,0.0,0.2767055024691269,-0.0,1.0,0.0,1.0,1.0,1.0, 1.0
277,0.0228,0.132,3.45,0.132,3.45,0.960823585886627,0.0,0.277160669655641,-0.0,1.0,0.0,1.0,1.0,1.0, 1.0
278,0.0228,0.132,3.45,0.132,3.45,0.960375421232915,0.0,0.2787096164320512,-0.0,1.0,0.0,1.0,1.0,1.0, 1.0
279,0.0228,0.132,3.45,0.132,3.45,0.9587929892197766,0.0,0.2841056208930146,-0.0,1.0,0.0,1.0,1.0,1.0, 1.0
280,0.0228,0.132,3.45,0.132,3.45,0.9541620759073862,0.0,0.2992903822378981,-0.0,1.0,0.0,1.0,1.0,1.0, 1.0
281,0.0228,0.132,3.45,0.132,3.45,0.9859036412125523,0.0,0.16731410652969758,-0.0,1.0,0.0,1.0,1.0,1.0, 1.0
282,0.0228,0.132,3.45,0.132,3.45,0.9859550356078791,0.0,0.16701098095474376,-0.0,1.0,0.0,1.0,1.0,1.0, 1.0
283,0.0228,0.132,3.45,0.132,3.45,0.9859758566377285,0.0,0.1668880167282766,-0.0,1.0,0.0,1.0,1.0,1.0, 1.0
284,0.0228,0.132,3.45,0.132,3.45,0.9859522259963879,0.0,0.16702756674503694,-0.0,1.0,0.0,1.0,1.0,1.0, 1.0
285,0.0228,0.132,3.45,0.132,3.45,0.9858028598480943,0.0,0.16790688346615903,-0.0,1.0,0.0,1.0,1.0,1.0, 1.0
286,0.0228,0.132,3.45,0.132,3.45,0.9852116150788478,0.0,0.17134197825905986,-0.0,1.0,0.0,1.0,1.0,1.0, 1.0
287,0.0228,0.132,3.45,0.132,3.45,0.9834245326308264,0.0,0.18131792139730848,-0.0,1.0,0.0,1.0,1.0,1.0, 1.0
288,0.0228,0.132,3.45,0.132,3.45,0.9984338120403125,0.0,0.0559457145333756,-0.0,1.0,0.0,1.0,1.0,1.0, 1.0
289,0.0228,0.132,3.45,0.132,3.45,0.9984441628971588,0.0,0.055760681278046016,-0.0,1.0,0.0,1.0,1.0,1.0, 1.0
290,0.0228,0.132,3.45,0.132,3.45,0.9984485036262007,0.0,0.055682902282482266,-0.0,1.0,0.0,1.0,1.0,1.0, 1.0
291,0.0228,0.132,3.45,0.132,3.45,0.9984470554984805,0.0,0.055708862548199255,-0.0,1.0,0.0,1.0,1.0,1.0, 1.0
292,0.0228,0.132,3.45,0.132,3.45,0.9984309848630776,0.0,0.05599614687944963,-0.0,1.0,0.0,1.0,1.0,1.0, 1.0
293,0.0228,0.132,3.45,0.132,3.45,0.9983638589966924,0.0,0.05718046037968142,-0.0,1.0,0.0,1.0,1.0,1.0, 1.0
294,0.0228,0.132,3.45,0.132,3.45,0.9981556622024358,0.0,0.06070645775547199,-0.0,1.0,0.0,1.0,1.0,1.0, 1.0
295,0.0228,0.132,3.45,0.132,3.45,0.9981184257681287,0.0,-0.061315643535337576,0.0,1.0,0.0,1.0,1.0,1.0, 1.0
296,0.0228,0.132,3.45,0.132,3.45,0.9830955202142735,0.0,-0.18309341368445495,0.0,1.0,0.0,1.0,1.0,1.0, 1.0
297,0.0228,0.132,3.45,0.132,3.45,0.9534285883749477,0.0,-0.3016188436907655,0.0,1.0,0.0,1.0,1.0,1.0, 1.0
298,0.0228,0.132,3.45,0.132,3.45,0.9101759414106194,0.0,-0.41422186769567443,0.0,1.0,0.0,1.0,1.0,1.0, 1.0
299,0.0228,0.132,3.45,0.132,3.45,0.8557111946418785,0.0,-0.5174537190556939,0.0,1.0,0.0,1.0,1.0,1.0, 1.0
300,0.0228,0.132,3.45,0.132,3.45,0.7947052547167702,0.0,-0.6069955173850573,0.0,1.0,0.0,1.0,1.0,1.0, 1.0
301,0.0228,0.132,3.45,0.132,3.45,0.7353667966891209,0.0,-0.6776692956945749,0.0,1.0,0.0,1.0,1.0,1.0, 1.0
302,0.0228,0.132,3.45,0.132,3.45,0.9983548776016021,0.0,-0.057337059299288125,0.0,1.0,0.0,1.0,1.0,1.0, 1.0
303,0.0228,0.132,3.45,0.132,3.45,0.9851265592203594,0.0,-0.17183033003127143,0.0,1.0,0.0,1.0,1.0,1.0, 1.0
304,0.0228,0.132,3.45,0.132,3.45,0.9585997999224201,0.0,-0.2847567797062895,0.0,1.0,0.0,1.0,1.0,1.0, 1.0
305,0.0228,0.132,3.45,0.132,3.45,0.919131204703848,0.0,-0.39395155608228444,0.0,1.0,0.0,1.0,1.0,1.0, 1.0
306,0.0228,0.132,3.45,0.132,3.45,0.8680265745531295,0.0,-0.49651773973299335,0.0,1.0,0.0,1.0,1.0,1.0, 1.0
307,0.0228,0.132,3.45,0.132,3.45,0.8078472795799962,0.0,-0.5893918669910532,0.0,1.0,0.0,1.0,1.0,1.0, 1.0
308,0.0228,0.132,3.45,0.132,3.45,0.7419075334338547,0.0,-0.6705022086720472,0.0,1.0,0.0,1.0,1.0,1.0, 1.0
309,0.0228,0.132,3.45,0.132,3.45,0.9984327972804028,0.0,-0.05596382148165205,0.0,1.0,0.0,1.0,1.0,1.0, 1.0
310,0.0228,0.132,3.45,0.132,3.45,0.9858093726256398,0.0,-0.16786864163220702,0.0,1.0,0.0,1.0,1.0,1.0, 1.0
311,0.0228,0.132,3.45,0.132,3.45,0.9603892037944115,0.0,-0.27866212020139475,0.0,1.0,0.0,1.0,1.0,1.0, 1.0
312,0.0228,0.132,3.45,0.132,3.45,0.9223166370330491,0.0,-0.38643501530276325,0.0,1.0,0.0,1.0,1.0,1.0, 1.0
313,0.0228,0.132,3.45,0.132,3.45,0.872485005127522,0.0,-0.4886408863650563,0.0,1.0,0.0,1.0,1.0,1.0, 1.0
314,0.0228,0.132,3.45,0.132,3.45,0.8125028241244994,0.0,-0.5829572546848635,0.0,1.0,0.0,1.0,1.0,1.0, 1.0
315,0.0228,0.132,3.45,0.132,3.45,0.7441550739915905,0.0,-0.668006905542578,0.0,1.0,0.0,1.0,1.0,1.0, 1.0
316,0.0228,0.132,3.45,0.132,3.45,0.9984529162668901,0.0,-0.05560372288024098,0.0,1.0,0.0,1.0,1.0,1.0, 1.0
317,0.0228,0.132,3.45,0.132,3.45,0.9859913859128664,0.0,-0.16679624367960094,0.0,1.0,0.0,1.0,1.0,1.0, 1.0
318,0.0228,0.132,3.45,0.132,3.45,0.960911153465471,0.0,-0.27685692179473853,0.0,1.0,0.0,1.0,1.0,1.0, 1.0
319,0.0228,0.132,3.45,0.132,3.45,0.9233258940912129,0.0,-0.38401730859514926,0.0,1.0,0.0,1.0,1.0,1.0, 1.0
320,0.0228,0.132,3.45,0.132,3.45,0.8739475484367275,0.0,-0.4860202491475368,0.0,1.0,0.0,1.0,1.0,1.0, 1.0
321,0.0228,0.132,3.45,0.132,3.45,0.8140386427396334,0.0,-0.5808107162635822,0.0,1.0,0.0,1.0,1.0,1.0, 1.0
322,0.0228,0.132,3.45,0.132,3.45,0.7449010174123589,0.0,-0.6671749952284127,0.0,1.0,0.0,1.0,1.0,1.0, 1.0
323,0.0228,0.132,3.45,0.132,3.45,0.9984554286458628,0.0,-0.0555585907633219,0.0,1.0,0.0,1.0,1.0,1.0, 1.0
324,0.0228,0.132,3.45,0.132,3.45,0.9860227729320507,0.0,-0.16661059768030811,0.0,1.0,0.0,1.0,1.0,1.0, 1.0
325,0.0228,0.132,3.45,0.132,3.45,0.9610582624303078,0.0,-0.27634582720648754,0.0,1.0,0.0,1.0,1.0,1.0, 1.0
326,0.0228,0.132,3.45,0.132,3.45,0.9237067009866725,0.0,-0.3831004183661486,0.0,1.0,0.0,1.0,1.0,1.0, 1.0
327,0.0228,0.132,3.45,0.132,3.45,0.8745798391892996,0.0,-0.4848815369588934,0.0,1.0,0.0,1.0,1.0,1.0, 1.0
328,0.0228,0.132,3.45,0.132,3.45,0.8147159784004377,0.0,-0.5798602198280354,0.0,1.0,0.0,1.0,1.0,1.0, 1.0
329,0.0228,0.132,3.45,0.132,3.45,0.74521983032252,0.0,-0.6668188693296512,0.0,1.0,0.0,1.0,1.0,1.0, 1.0
330,0.0228,0.132,3.45,0.132,3.45,0.9984500124749668,0.0,-0.05565584056268337,0.0,1.0,0.0,1.0,1.0,1.0, 1.0
331,0.0228,0.132,3.45,0.132,3.45,0.9859931083739655,0.0,-0.16678606128524526,0.0,1.0,0.0,1.0,1.0,1.0, 1.0
332,0.0228,0.132,3.45,0.132,3.45,0.9610631234618319,0.0,-0.2763289212547029,0.0,1.0,0.0,1.0,1.0,1.0, 1.0
333,0.0228,0.132,3.45,0.132,3.45,0.9238650908741556,0.0,-0.38271829570075216,0.0,1.0,0.0,1.0,1.0,1.0, 1.0
334,0.0228,0.132,3.45,0.132,3.45,0.8749392367916892,0.0,-0.4842327249601958,0.0,1.0,0.0,1.0,1.0,1.0, 1.0
335,0.0228,0.132,3.45,0.132,3.45,0.815141300909998,0.0,-0.5792621682371084,0.0,1.0,0.0,1.0,1.0,1.0, 1.0
336,0.0228,0.132,3.45,0.132,3.45,0.745427602577041,0.0,-0.6665865955119749,0.0,1.0,0.0,1.0,1.0,1.0, 1.0
337,0.0228,0.132,3.45,0.132,3.45,0.998436208765922,0.0,-0.05590292501410232,0.0,1.0,0.0,1.0,1.0,1.0, 1.0
338,0.0228,0.132,3.45,0.132,3.45,0.9859185949913661,0.0,-0.16722596703338413,0.0,1.0,0.0,1.0,1.0,1.0, 1.0
339,0.0228,0.132,3.45,0.132,3.45,0.9609784842558541,0.0,-0.2766231241189376,0.0,1.0,0.0,1.0,1.0,1.0, 1.0
340,0.0228,0.132,3.45,0.132,3.45,0.9238924696810519,0.0,-0.38265219778102216,0.0,1.0,0.0,1.0,1.0,1.0, 1.0
341,0.0228,0.132,3.45,0.132,3.45,0.8751457178708545,0.0,-0.4838594553093973,0.0,1.0,0.0,1.0,1.0,1.0, 1.0
342,0.0228,0.132,3.45,0.132,3.45,0.8154334860431859,0.0,-0.5788507837426304,0.0,1.0,0.0,1.0,1.0,1.0, 1.0
343,0.0228,0.132,3.45,0.132,3.45,0.7455773406433823,0.0,-0.6664191092091687,0.0,1.0,0.0,1.0,1.0,1.0, 1.0
344,0.0228,0.132,3.45,0.132,3.45,0.9981224871290898,0.0,-0.061249495403961386,0.0,1.0,0.0,1.0,1.0,1.0, 1.0
345,0.0228,0.132,3.45,0.132,3.45,0.9831598477592606,0.0,-0.18274767783473367,0.0,1.0,0.0,1.0,1.0,1.0, 1.0
346,0.0228,0.132,3.45,0.132,3.45,0.9535944036695101,0.0,-0.3010941933850457,0.0,1.0,0.0,1.0,1.0,1.0, 1.0
347,0.0228,0.132,3.45,0.132,3.45,0.910423191921393,0.0,-0.4136781497875642,0.0,1.0,0.0,1.0,1.0,1.0, 1.0
348,0.0228,0.132,3.45,0.132,3.45,0.8559755680641522,0.0,-0.5170162733195657,0.0,1.0,0.0,1.0,1.0,1.0, 1.0
349,0.0228,0.132,3.45,0.132,3.45,0.794895831460495,0.0,-0.6067459246890153,0.0,1.0,0.0,1.0,1.0,1.0, 1.0
350,0.0228,0.132,3.45,0.132,3.45,0.7354343554454973,0.0,-0.6775959775784283,0.0,1.0,0.0,1.0,1.0,1.0, 1.0
351,0.0228,0.132,3.45,0.132,3.45,0.9983553878193895,0.0,-0.05732817467874263,0.0,1.0,0.0,1.0,1.0,1.0, 1.0
352,0.0228,0.132,3.45,0.132,3.45,0.9851439250512134,0.0,-0.17173073963239405,0.0,1.0,0.0,1.0,1.0,1.0, 1.0
353,0.0228,0.132,3.45,0.132,3.45,0.9586482331687276,0.0,-0.2845936841226046,0.0,1.0,0.0,1.0,1.0,1.0, 1.0
354,0.0228,0.132,3.45,0.132,3.45,0.9192070364582514,0.0,-0.39377458542374094,0.0,1.0,0.0,1.0,1.0,1.0, 1.0
355,0.0228,0.132,3.45,0.132,3.45,0.868112572342223,0.0,-0.49636736570947965,0.0,1.0,0.0,1.0,1.0,1.0, 1.0
356,0.0228,0.132,3.45,0.132,3.45,0.8079145395325761,0.0,-0.5892996663938184,0.0,1.0,0.0,1.0,1.0,1.0, 1.0
357,0.0228,0.132,3.45,0.132,3.45,0.7419331051172553,0.0,-0.670473912640207,0.0,1.0,0.0,1.0,1.0,1.0, 1.0
358,0.0228,0.132,3.45,0.132,3.45,0.9984292734090583,0.0,-0.056026654369683654,0.0,1.0,0.0,1.0,1.0,1.0, 1.0
359,0.0228,0.132,3.45,0.132,3.45,0.9857893831438611,0.0,-0.16798598775149645,0.0,1.0,0.0,1.0,1.0,1.0, 1.0
360,0.0228,0.132,3.45,0.132,3.45,0.9603463483832038,0.0,-0.2788097759172841,0.0,1.0,0.0,1.0,1.0,1.0, 1.0
361,0.0228,0.132,3.45,0.132,3.45,0.9222492874974789,0.0,-0.38659572127791636,0.0,1.0,0.0,1.0,1.0,1.0, 1.0
362,0.0228,0.132,3.45,0.132,3.45,0.8724061414231262,0.0,-0.48878167355907703,0.0,1.0,0.0,1.0,1.0,1.0, 1.0
363,0.0228,0.132,3.45,0.132,3.45,0.8124330940001933,0.0,-0.5830544295117507,0.0,1.0,0.0,1.0,1.0,1.0, 1.0
364,0.0228,0.132,3.45,0.132,3.45,0.7441237615738725,0.0,-0.6680417857148987,0.0,1.0,0.0,1.0,1.0,1.0, 1.0
365,0.0228,0.132,3.45,0.132,3.45,0.9984467390316341,0.0,-0.055714534163860255,0.0,1.0,0.0,1.0,1.0,1.0, 1.0
366,0.0228,0.132,3.45,0.132,3.45,0.9859498402949408,0.0,-0.16704164876575148,0.0,1.0,0.0,1.0,1.0,1.0, 1.0
367,0.0228,0.132,3.45,0.132,3.45,0.9608183708631568,0.0,-0.2771787477637296,0.0,1.0,0.0,1.0,1.0,1.0, 1.0
368,0.0228,0.132,3.45,0.132,3.45,0.923184138897842,0.0,-0.38435796555743457,0.0,1.0,0.0,1.0,1.0,1.0, 1.0
369,0.0228,0.132,3.45,0.132,3.45,0.8737784178857658,0.0,-0.48632425030739307,0.0,1.0,0.0,1.0,1.0,1.0, 1.0
370,0.0228,0.132,3.45,0.132,3.45,0.8138893109175664,0.0,-0.5810199562615117,0.0,1.0,0.0,1.0,1.0,1.0, 1.0
371,0.0228,0.132,3.45,0.132,3.45,0.7448369339329992,0.0,-0.6672465375326341,0.0,1.0,0.0,1.0,1.0,1.0, 1.0
372,0.0228,0.132,3.45,0.132,3.45,0.9984484465938176,0.0,-0.05568392491906973,0.0,1.0,0.0,1.0,1.0,1.0, 1.0
373,0.0228,0.132,3.45,0.132,3.45,0.9859754342823521,0.0,-0.16689051198833058,0.0,1.0,0.0,1.0,1.0,1.0, 1.0
374,0.0228,0.132,3.45,0.132,3.45,0.9609538121639655,0.0,-0.27670881967791033,0.0,1.0,0.0,1.0,1.0,1.0, 1.0
375,0.0228,0.132,3.45,0.132,3.45,0.923549436519694,0.0,-0.38347938445782953,0.0,1.0,0.0,1.0,1.0,1.0, 1.0
376,0.0228,0.132,3.45,0.132,3.45,0.8743931484855442,0.0,-0.48521811784138597,0.0,1.0,0.0,1.0,1.0,1.0, 1.0
377,0.0228,0.132,3.45,0.132,3.45,0.8145523947470482,0.0,-0.5800899897531837,0.0,1.0,0.0,1.0,1.0,1.0, 1.0
378,0.0228,0.132,3.45,0.132,3.45,0.745150134128933,0.0,-0.6668967518346698,0.0,1.0,0.0,1.0,1.0,1.0, 1.0
379,0.0228,0.132,3.45,0.132,3.45,0.9984441628971588,0.0,-0.055760681278046016,0.0,1.0,0.0,1.0,1.0,1.0, 1.0
380,0.0228,0.132,3.45,0.132,3.45,0.9859550356078791,0.0,-0.1670109809547439,0.0,1.0,0.0,1.0,1.0,1.0, 1.0
381,0.0228,0.132,3.45,0.132,3.45,0.9609810458148813,0.0,-0.2766142252027852,0.0,1.0,0.0,1.0,1.0,1.0, 1.0
382,0.0228,0.132,3.45,0.132,3.45,0.9237413076465362,0.0,-0.3830169663963562,0.0,1.0,0.0,1.0,1.0,1.0, 1.0
383,0.0228,0.132,3.45,0.132,3.45,0.8747949822010513,0.0,-0.4844932807747309,0.0,1.0,0.0,1.0,1.0,1.0, 1.0
384,0.0228,0.132,3.45,0.132,3.45,0.8150200385331731,0.0,-0.5794327715873389,0.0,1.0,0.0,1.0,1.0,1.0, 1.0
385,0.0228,0.132,3.45,0.132,3.45,0.7453766736294828,0.0,-0.6666435437391166,0.0,1.0,0.0,1.0,1.0,1.0, 1.0
386,0.0228,0.132,3.45,0.132,3.45,0.9984338120403125,0.0,-0.0559457145333756,0.0,1.0,0.0,1.0,1.0,1.0, 1.0
387,0.0228,0.132,3.45,0.132,3.45,0.9859036412125523,0.0,-0.1673141065296976,0.0,1.0,0.0,1.0,1.0,1.0, 1.0
388,0.0228,0.132,3.45,0.132,3.45,0.960946730067748,0.0,-0.27673341318334255,0.0,1.0,0.0,1.0,1.0,1.0, 1.0
389,0.0228,0.132,3.45,0.132,3.45,0.9238437601877564,0.0,-0.3827697829794659,0.0,1.0,0.0,1.0,1.0,1.0, 1.0
390,0.0228,0.132,3.45,0.132,3.45,0.8750905281920076,0.0,-0.48395926219944685,0.0,1.0,0.0,1.0,1.0,1.0, 1.0
391,0.0228,0.132,3.45,0.132,3.45,0.8153900658699382,0.0,-0.5789119453601018,0.0,1.0,0.0,1.0,1.0,1.0, 1.0
392,0.0228,0.132,3.45,0.132,3.45,0.7455586864897049,0.0,-0.6664399785425137,0.0,1.0,0.0,1.0,1.0,1.0, 1.0
393,0.0228,0.132,3.45,0.132,3.45,0.06854440224581274,0.0,-0.9976480666651762,0.0,1.0,0.0,1.0,1.0,1.0, 1.0
394,0.0228,0.132,3.45,0.132,3.45,0.20341721376392013,0.0,-0.9790921494652705,0.0,1.0,0.0,1.0,1.0,1.0, 1.0
395,0.0228,0.132,3.45,0.132,3.45,0.3323237831435859,0.0,-0.943165363633088,0.0,1.0,0.0,1.0,1.0,1.0, 1.0
396,0.0228,0.132,3.45,0.132,3.45,0.4518131191778974,0.0,-0.8921126079922529,0.0,1.0,0.0,1.0,1.0,1.0, 1.0
397,0.0228,0.132,3.45,0.132,3.45,0.5576394803515924,0.0,-0.8300832548324331,0.0,1.0,0.0,1.0,1.0,1.0, 1.0
398,0.0228,0.132,3.45,0.132,3.45,0.6447365016452313,0.0,-0.7644048949648796,0.0,1.0,0.0,1.0,1.0,1.0, 1.0
399,0.0228,0.132,3.45,0.132,3.45,0.7067862047900461,0.0,-0.7074272123112619,0.0,1.0,0.0,1.0,1.0,1.0, 1.0
400,0.0228,0.132,3.45,0.132,3.45,0.08224546772034791,0.0,-0.9966121025953184,0.0,1.0,0.0,1.0,1.0,1.0, 1.0
401,0.0228,0.132,3.45,0.132,3.45,0.2406712036543031,0.0,-0.9706067029088502,0.0,1.0,0.0,1.0,1.0,1.0, 1.0
402,0.0228,0.132,3.45,0.132,3.45,0.3861050391358737,0.0,-0.9224548220665797,0.0,1.0,0.0,1.0,1.0,1.0, 1.0
403,0.0228,0.132,3.45,0.132,3.45,0.5143239488378568,0.0,-0.8575959862614992,0.0,1.0,0.0,1.0,1.0,1.0, 1.0
404,0.0228,0.132,3.45,0.132,3.45,0.6218320587841416,0.0,-0.7831506181241742,0.0,1.0,0.0,1.0,1.0,1.0, 1.0
405,0.0228,0.132,3.45,0.132,3.45,0.7055790312157195,0.0,-0.7086312374632426,0.0,1.0,0.0,1.0,1.0,1.0, 1.0
406,0.0228,0.132,3.45,0.132,3.45,0.7631410045931728,0.0,-0.6462320071835833,0.0,1.0,0.0,1.0,1.0,1.0, 1.0
407,0.0228,0.132,3.45,0.132,3.45,0.10368173648120495,0.0,-0.9946105255426578,0.0,1.0,0.0,1.0,1.0,1.0, 1.0
408,0.0228,0.132,3.45,0.132,3.45,0.2968489254740109,0.0,-0.954924455360174,0.0,1.0,0.0,1.0,1.0,1.0, 1.0
409,0.0228,0.132,3.45,0.132,3.45,0.4628153019577262,0.0,-0.8864547344753587,0.0,1.0,0.0,1.0,1.0,1.0, 1.0
410,0.0228,0.132,3.45,0.132,3.45,0.5979226610690935,0.0,-0.8015537981820398,0.0,1.0,0.0,1.0,1.0,1.0, 1.0
411,0.0228,0.132,3.45,0.132,3.45,0.7025389827133923,0.0,-0.7116452611856781,0.0,1.0,0.0,1.0,1.0,1.0, 1.0
412,0.0228,0.132,3.45,0.132,3.45,0.7784779239318818,0.0,-0.6276719859534178,0.0,1.0,0.0,1.0,1.0,1.0, 1.0
413,0.0228,0.132,3.45,0.132,3.45,0.8281673825234668,0.0,-0.5604808529505979,0.0,1.0,0.0,1.0,1.0,1.0, 1.0
414,0.0228,0.132,3.45,0.132,3.45,0.13693067247858473,0.0,-0.9905806332321273,0.0,1.0,0.0,1.0,1.0,1.0, 1.0
415,0.0228,0.132,3.45,0.132,3.45,0.37888302157456183,0.0,-0.9254445720638973,0.0,1.0,0.0,1.0,1.0,1.0, 1.0
416,0.0228,0.132,3.45,0.132,3.45,0.564843053671059,0.0,-0.8251983547726893,0.0,1.0,0.0,1.0,1.0,1.0, 1.0
417,0.0228,0.132,3.45,0.132,3.45,0.6983994453199277,0.0,-0.7157081910784712,0.0,1.0,0.0,1.0,1.0,1.0, 1.0
418,0.0228,0.132,3.45,0.132,3.45,0.7908271919257928,0.0,-0.6120395024103962,0.0,1.0,0.0,1.0,1.0,1.0, 1.0
419,0.0228,0.132,3.45,0.132,3.45,0.8522577693231699,0.0,-0.5231220647499916,0.0,1.0,0.0,1.0,1.0,1.0, 1.0
420,0.0228,0.132,3.45,0.132,3.45,0.8899564844955572,0.0,-0.45604545355074994,0.0,1.0,0.0,1.0,1.0,1.0, 1.0
421,0.0228,0.132,3.45,0.132,3.45,0.1936742117045989,0.0,-0.981065899784822,0.0,1.0,0.0,1.0,1.0,1.0, 1.0
422,0.0228,0.132,3.45,0.132,3.45,0.50321819396134,0.0,-0.8641593888087354,0.0,1.0,0.0,1.0,1.0,1.0, 1.0
423,0.0228,0.132,3.45,0.132,3.45,0.6961741082919698,0.0,-0.7178729768864969,0.0,1.0,0.0,1.0,1.0,1.0, 1.0
424,0.0228,0.132,3.45,0.132,3.45,0.8096802314554499,0.0,-0.5868713000226278,0.0,1.0,0.0,1.0,1.0,1.0, 1.0
425,0.0228,0.132,3.45,0.132,3.45,0.877456321903288,0.0,-0.47965654707504335,0.0,1.0,0.0,1.0,1.0,1.0, 1.0
426,0.0228,0.132,3.45,0.132,3.45,0.9181181627112923,0.0,-0.39630674899582663,0.0,1.0,0.0,1.0,1.0,1.0, 1.0
427,0.0228,0.132,3.45,0.132,3.45,0.9414456282853049,0.0,-0.33716483948135473,0.0,1.0,0.0,1.0,1.0,1.0, 1.0
428,0.0228,0.132,3.45,0.132,3.45,0.3149619446738434,0.0,-0.9491043005946559,0.0,1.0,0.0,1.0,1.0,1.0, 1.0
429,0.0228,0.132,3.45,0.132,3.45,0.6983312802488286,0.0,-0.7157747013034423,0.0,1.0,0.0,1.0,1.0,1.0, 1.0
430,0.0228,0.132,3.45,0.132,3.45,0.8508638049897085,0.0,-0.5253863201097221,0.0,1.0,0.0,1.0,1.0,1.0, 1.0
431,0.0228,0.132,3.45,0.132,3.45,0.9170849513633335,0.0,-0.39869185091109177,0.0,1.0,0.0,1.0,1.0,1.0, 1.0
432,0.0228,0.132,3.45,0.132,3.45,0.9503827171234351,0.0,-0.3110830933899764,0.0,1.0,0.0,1.0,1.0,1.0, 1.0
433,0.0228,0.132,3.45,0.132,3.45,0.9684935133213112,0.0,-0.2490387814267955,0.0,1.0,0.0,1.0,1.0,1.0, 1.0
434,0.0228,0.132,3.45,0.132,3.45,0.9782653231086915,0.0,-0.2073570775330502,0.0,1.0,0.0,1.0,1.0,1.0, 1.0
435,0.0228,0.132,3.45,0.132,3.45,0.7040787680909991,0.0,-0.7101218827239878,0.0,1.0,0.0,1.0,1.0,1.0, 1.0
436,0.0228,0.132,3.45,0.132,3.45,0.9455628866284753,0.0,-0.32543943742396214,0.0,1.0,0.0,1.0,1.0,1.0, 1.0
437,0.0228,0.132,3.45,0.132,3.45,0.9790832879585578,0.0,-0.2034598614967089,0.0,1.0,0.0,1.0,1.0,1.0, 1.0
438,0.0228,0.132,3.45,0.132,3.45,0.9894575626675718,0.0,-0.14482310478631646,0.0,1.0,0.0,1.0,1.0,1.0, 1.0
439,0.0228,0.132,3.45,0.132,3.45,0.9940107993397571,0.0,-0.10928188686116826,0.0,1.0,0.0,1.0,1.0,1.0, 1.0
440,0.0228,0.132,3.45,0.132,3.45,0.9963412746620253,0.0,-0.08546381927371835,0.0,1.0,0.0,1.0,1.0,1.0, 1.0
441,0.0228,0.132,3.45,0.132,3.45,0.9975428246159501,0.0,-0.0700593538168289,0.0,1.0,0.0,1.0,1.0,1.0, 1.0
442,0.0228,0.132,3.45,0.132,3.45,0.06849569783444179,0.0,-0.9976514117557157,0.0,1.0,0.0,1.0,1.0,1.0, 1.0
443,0.0228,0.132,3.45,0.132,3.45,0.20291491589210175,0.0,-0.979196373006202,0.0,1.0,0.0,1.0,1.0,1.0, 1.0
444,0.0228,0.132,3.45,0.132,3.45,0.33145288122094935,0.0,-0.9434717735737149,0.0,1.0,0.0,1.0,1.0,1.0, 1.0
445,0.0228,0.132,3.45,0.132,3.45,0.4508871898667225,0.0,-0.8925809442364822,0.0,1.0,0.0,1.0,1.0,1.0, 1.0
446,0.0228,0.132,3.45,0.132,3.45,0.556962788735666,0.0,-0.8305374476589179,0.0,1.0,0.0,1.0,1.0,1.0, 1.0
447,0.0228,0.132,3.45,0.132,3.45,0.6444372273313276,0.0,-0.7646572173395807,0.0,1.0,0.0,1.0,1.0,1.0, 1.0
448,0.0228,0.132,3.45,0.132,3.45,0.7067688417160914,0.0,-0.7074445592265831,0.0,1.0,0.0,1.0,1.0,1.0, 1.0
449,0.0228,0.132,3.45,0.132,3.45,0.08225347585969192,0.0,-0.9966114416907921,0.0,1.0,0.0,1.0,1.0,1.0, 1.0
450,0.0228,0.132,3.45,0.132,3.45,0.24020941798403544,0.0,-0.9707210904846825,0.0,1.0,0.0,1.0,1.0,1.0, 1.0
451,0.0228,0.132,3.45,0.132,3.45,0.3852344808926479,0.0,-0.9228187225730589,0.0,1.0,0.0,1.0,1.0,1.0, 1.0
452,0.0228,0.132,3.45,0.132,3.45,0.5134242274084527,0.0,-0.8581349326941733,0.0,1.0,0.0,1.0,1.0,1.0, 1.0
453,0.0228,0.132,3.45,0.132,3.45,0.6212725692093285,0.0,-0.7835945346593735,0.0,1.0,0.0,1.0,1.0,1.0, 1.0
454,0.0228,0.132,3.45,0.132,3.45,0.7054588378264152,0.0,-0.7087508928619446,0.0,1.0,0.0,1.0,1.0,1.0, 1.0
455,0.0228,0.132,3.45,0.132,3.45,0.763296298464968,0.0,-0.6460485746054071,0.0,1.0,0.0,1.0,1.0,1.0, 1.0
456,0.0228,0.132,3.45,0.132,3.45,0.10371592200710564,0.0,-0.9946069613280495,0.0,1.0,0.0,1.0,1.0,1.0, 1.0
457,0.0228,0.132,3.45,0.132,3.45,0.2966433603075551,0.0,-0.9549883333242569,0.0,1.0,0.0,1.0,1.0,1.0, 1.0
458,0.0228,0.132,3.45,0.132,3.45,0.4623994625058586,0.0,-0.8866717188871499,0.0,1.0,0.0,1.0,1.0,1.0, 1.0
459,0.0228,0.132,3.45,0.132,3.45,0.597525163386589,0.0,-0.8018501600173377,0.0,1.0,0.0,1.0,1.0,1.0, 1.0
460,0.0228,0.132,3.45,0.132,3.45,0.702387383320228,0.0,-0.7117948888216066,0.0,1.0,0.0,1.0,1.0,1.0, 1.0
461,0.0228,0.132,3.45,0.132,3.45,0.7786479016368298,0.0,-0.6274611105690628,0.0,1.0,0.0,1.0,1.0,1.0, 1.0
462,0.0228,0.132,3.45,0.132,3.45,0.8284908171760902,0.0,-0.560002648078466,0.0,1.0,0.0,1.0,1.0,1.0, 1.0
463,0.0228,0.132,3.45,0.132,3.45,0.13691706255728833,0.0,-0.9905825144735211,0.0,1.0,0.0,1.0,1.0,1.0, 1.0
464,0.0228,0.132,3.45,0.132,3.45,0.3792083395128702,0.0,-0.9253113180135061,0.0,1.0,0.0,1.0,1.0,1.0, 1.0
465,0.0228,0.132,3.45,0.132,3.45,0.5652480166298383,0.0,-0.8249210142165335,0.0,1.0,0.0,1.0,1.0,1.0, 1.0
466,0.0228,0.132,3.45,0.132,3.45,0.6987596463922074,0.0,-0.7153565241009808,0.0,1.0,0.0,1.0,1.0,1.0, 1.0
467,0.0228,0.132,3.45,0.132,3.45,0.7912115335998391,0.0,-0.6115425652385864,0.0,1.0,0.0,1.0,1.0,1.0, 1.0
468,0.0228,0.132,3.45,0.132,3.45,0.8526546786619416,0.0,-0.5224748787797373,0.0,1.0,0.0,1.0,1.0,1.0, 1.0
469,0.0228,0.132,3.45,0.132,3.45,0.8903307631104385,0.0,-0.455314322484132,0.0,1.0,0.0,1.0,1.0,1.0, 1.0
470,0.0228,0.132,3.45,0.132,3.45,0.19371299052094834,0.0,-0.9810582435836472,0.0,1.0,0.0,1.0,1.0,1.0, 1.0
471,0.0228,0.132,3.45,0.132,3.45,0.5041943688527283,0.0,-0.8635902028260851,0.0,1.0,0.0,1.0,1.0,1.0, 1.0
472,0.0228,0.132,3.45,0.132,3.45,0.6974424845334415,0.0,-0.716640761307798,0.0,1.0,0.0,1.0,1.0,1.0, 1.0
473,0.0228,0.132,3.45,0.132,3.45,0.810656991073674,0.0,-0.5855213427565021,0.0,1.0,0.0,1.0,1.0,1.0, 1.0
474,0.0228,0.132,3.45,0.132,3.45,0.8780928652233101,0.0,-0.4784902507302712,0.0,1.0,0.0,1.0,1.0,1.0, 1.0
475,0.0228,0.132,3.45,0.132,3.45,0.9185552459937857,0.0,-0.3952926258574729,0.0,1.0,0.0,1.0,1.0,1.0, 1.0
476,0.0228,0.132,3.45,0.132,3.45,0.9417316479963448,0.0,-0.33636513368969817,0.0,1.0,0.0,1.0,1.0,1.0, 1.0
477,0.0228,0.132,3.45,0.132,3.45,0.31508665707718814,0.0,-0.9490629054661879,0.0,1.0,0.0,1.0,1.0,1.0, 1.0
478,0.0228,0.132,3.45,0.132,3.45,0.6999194042176269,0.0,-0.7142218336060879,0.0,1.0,0.0,1.0,1.0,1.0, 1.0
479,0.0228,0.132,3.45,0.132,3.45,0.8522875501026334,0.0,-0.5230735435290637,0.0,1.0,0.0,1.0,1.0,1.0, 1.0
480,0.0228,0.132,3.45,0.132,3.45,0.9179459493985153,0.0,-0.3967054751107659,0.0,1.0,0.0,1.0,1.0,1.0, 1.0
481,0.0228,0.132,3.45,0.132,3.45,0.950824229925568,0.0,-0.30973098615807015,0.0,1.0,0.0,1.0,1.0,1.0, 1.0
482,0.0228,0.132,3.45,0.132,3.45,0.9687180216439486,0.0,-0.24816404764234964,0.0,1.0,0.0,1.0,1.0,1.0, 1.0
483,0.0228,0.132,3.45,0.132,3.45,0.9783893320252882,0.0,-0.2067711657342729,0.0,1.0,0.0,1.0,1.0,1.0, 1.0
484,0.0228,0.132,3.45,0.132,3.45,0.704576964383878,0.0,-0.7096275792692949,0.0,1.0,0.0,1.0,1.0,1.0, 1.0
485,0.0228,0.132,3.45,0.132,3.45,0.9463191763896722,0.0,-0.32323368697766053,0.0,1.0,0.0,1.0,1.0,1.0, 1.0
486,0.0228,0.132,3.45,0.132,3.45,0.9794379060970533,0.0,-0.20174585026765704,0.0,1.0,0.0,1.0,1.0,1.0, 1.0
487,0.0228,0.132,3.45,0.132,3.45,0.9896186689404256,0.0,-0.14371809240516706,0.0,1.0,0.0,1.0,1.0,1.0, 1.0
488,0.0228,0.132,3.45,0.132,3.45,0.9940789075378041,0.0,-0.10866059814139599,0.0,1.0,0.0,1.0,1.0,1.0, 1.0
489,0.0228,0.132,3.45,0.132,3.45,0.9963576075517202,0.0,-0.08527319551777279,0.0,1.0,0.0,1.0,1.0,1.0, 1.0
490,0.0228,0.132,3.45,0.132,3.45,0.9975515261487784,0.0,-0.06993534641540759,0.0,1.0,0.0,1.0,1.0,1.0, 1.0
491,0.0228,0.132,3.45,0.132,3.45,0.6664191092091687,0.0,-0.7455773406433822,0.0,1.0,0.0,1.0,1.0,1.0, 1.0
492,0.0228,0.132,3.45,0.132,3.45,0.6665865955119749,0.0,-0.7454276025770409,0.0,1.0,0.0,1.0,1.0,1.0, 1.0
493,0.0228,0.132,3.45,0.132,3.45,0.6668188693296513,0.0,-0.7452198303225199,0.0,1.0,0.0,1.0,1.0,1.0, 1.0
494,0.0228,0.132,3.45,0.132,3.45,0.6671685291632226,0.0,-0.7449068087312549,0.0,1.0,0.0,1.0,1.0,1.0, 1.0
495,0.0228,0.132,3.45,0.132,3.45,0.6679840189147649,0.0,-0.744175618032786,0.0,1.0,0.0,1.0,1.0,1.0, 1.0
496,0.0228,0.132,3.45,0.132,3.45,0.6704237984737162,0.0,-0.7419783894697163,0.0,1.0,0.0,1.0,1.0,1.0, 1.0
497,0.0228,0.132,3.45,0.132,3.45,0.6774125349121393,0.0,-0.735603328937485,0.0,1.0,0.0,1.0,1.0,1.0, 1.0
498,0.0228,0.132,3.45,0.132,3.45,0.5788507837426304,0.0,-0.8154334860431859,0.0,1.0,0.0,1.0,1.0,1.0, 1.0
499,0.0228,0.132,3.45,0.132,3.45,0.5792621682371083,0.0,-0.815141300909998,0.0,1.0,0.0,1.0,1.0,1.0, 1.0
500,0.0228,0.132,3.45,0.132,3.45,0.5798602198280354,0.0,-0.8147159784004377,0.0,1.0,0.0,1.0,1.0,1.0, 1.0
501,0.0228,0.132,3.45,0.132,3.45,0.5808008245657004,0.0,-0.8140457003042291,0.0,1.0,0.0,1.0,1.0,1.0, 1.0
502,0.0228,0.132,3.45,0.132,3.45,0.5829173149567302,0.0,-0.8125314787278314,0.0,1.0,0.0,1.0,1.0,1.0, 1.0
503,0.0228,0.132,3.45,0.132,3.45,0.5892329659548594,0.0,-0.807963187176272,0.0,1.0,0.0,1.0,1.0,1.0, 1.0
504,0.0228,0.132,3.45,0.132,3.45,0.6064419795994205,0.0,-0.7951277415481968,0.0,1.0,0.0,1.0,1.0,1.0, 1.0
505,0.0228,0.132,3.45,0.132,3.45,0.4838594553093971,0.0,-0.8751457178708545,0.0,1.0,0.0,1.0,1.0,1.0, 1.0
506,0.0228,0.132,3.45,0.132,3.45,0.48423272496019565,0.0,-0.8749392367916892,0.0,1.0,0.0,1.0,1.0,1.0, 1.0
507,0.0228,0.132,3.45,0.132,3.45,0.4848801296135007,0.0,-0.8745806194433962,0.0,1.0,0.0,1.0,1.0,1.0, 1.0
508,0.0228,0.132,3.45,0.132,3.45,0.4860105818296418,0.0,-0.8739529245615081,0.0,1.0,0.0,1.0,1.0,1.0, 1.0
509,0.0228,0.132,3.45,0.132,3.45,0.48857838829183486,0.0,-0.8725200046383768,0.0,1.0,0.0,1.0,1.0,1.0, 1.0
510,0.0228,0.132,3.45,0.132,3.45,0.4962279024017007,0.0,-0.8681922994809433,0.0,1.0,0.0,1.0,1.0,1.0, 1.0
511,0.0228,0.132,3.45,0.132,3.45,0.5164149985034984,0.0,-0.856338454888388,0.0,1.0,0.0,1.0,1.0,1.0, 1.0
512,0.0228,0.132,3.45,0.132,3.45,0.38265219778102216,0.0,-0.9238924696810519,0.0,1.0,0.0,1.0,1.0,1.0, 1.0
513,0.0228,0.132,3.45,0.132,3.45,0.3827177728977252,0.0,-0.9238653074492001,0.0,1.0,0.0,1.0,1.0,1.0, 1.0
514,0.0228,0.132,3.45,0.132,3.45,0.3830967540110112,0.0,-0.9237082207419325,0.0,1.0,0.0,1.0,1.0,1.0, 1.0
515,0.0228,0.132,3.45,0.132,3.45,0.3839977887703987,0.0,-0.9233340122726142,0.0,1.0,0.0,1.0,1.0,1.0, 1.0
516,0.0228,0.132,3.45,0.132,3.45,0.3863388088578655,0.0,-0.9223569400022346,0.0,1.0,0.0,1.0,1.0,1.0, 1.0
517,0.0228,0.132,3.45,0.132,3.45,0.3935204658564535,0.0,-0.9193158559233708,0.0,1.0,0.0,1.0,1.0,1.0, 1.0
518,0.0228,0.132,3.45,0.132,3.45,0.41267200651815533,0.0,-0.910879692954168,0.0,1.0,0.0,1.0,1.0,1.0, 1.0
519,0.0228,0.132,3.45,0.132,3.45,0.2766231241189375,0.0,-0.9609784842558541,0.0,1.0,0.0,1.0,1.0,1.0, 1.0
520,0.0228,0.132,3.45,0.132,3.45,0.2763283555659408,0.0,-0.9610632861108694,0.0,1.0,0.0,1.0,1.0,1.0, 1.0
521,0.0228,0.132,3.45,0.132,3.45,0.2763418594997343,0.0,-0.9610594033087805,0.0,1.0,0.0,1.0,1.0,1.0, 1.0
522,0.0228,0.132,3.45,0.132,3.45,0.27683535089377004,0.0,-0.9609173681932922,0.0,1.0,0.0,1.0,1.0,1.0, 1.0
523,0.0228,0.132,3.45,0.132,3.45,0.2785547127153817,0.0,-0.9604203621456863,0.0,1.0,0.0,1.0,1.0,1.0, 1.0
524,0.0228,0.132,3.45,0.132,3.45,0.2842644660572458,0.0,-0.9587459065556364,0.0,1.0,0.0,1.0,1.0,1.0, 1.0
525,0.0228,0.132,3.45,0.132,3.45,0.2998455786379886,0.0,-0.9539877509545129,0.0,1.0,0.0,1.0,1.0,1.0, 1.0
526,0.0228,0.132,3.45,0.132,3.45,0.16722596703338413,0.0,-0.9859185949913661,0.0,1.0,0.0,1.0,1.0,1.0, 1.0
527,0.0228,0.132,3.45,0.132,3.45,0.16678606128524526,0.0,-0.9859931083739655,0.0,1.0,0.0,1.0,1.0,1.0, 1.0
528,0.0228,0.132,3.45,0.132,3.45,0.1666076147368215,0.0,-0.9860232769624188,0.0,1.0,0.0,1.0,1.0,1.0, 1.0
529,0.0228,0.132,3.45,0.132,3.45,0.16677944791504462,0.0,-0.9859942270384513,0.0,1.0,0.0,1.0,1.0,1.0, 1.0
530,0.0228,0.132,3.45,0.132,3.45,0.1677827129013848,0.0,-0.9858240011540861,0.0,1.0,0.0,1.0,1.0,1.0, 1.0
531,0.0228,0.132,3.45,0.132,3.45,0.17142970606141886,0.0,-0.9851963539719863,0.0,1.0,0.0,1.0,1.0,1.0, 1.0
532,0.0228,0.132,3.45,0.132,3.45,0.18165163322517755,0.0,-0.9833629462953267,0.0,1.0,0.0,1.0,1.0,1.0, 1.0
533,0.0228,0.132,3.45,0.132,3.45,0.05590292501410232,0.0,-0.998436208765922,0.0,1.0,0.0,1.0,1.0,1.0, 1.0
534,0.0228,0.132,3.45,0.132,3.45,0.05565584056268337,0.0,-0.9984500124749668,0.0,1.0,0.0,1.0,1.0,1.0, 1.0
535,0.0228,0.132,3.45,0.132,3.45,0.05555736910133012,0.0,-0.99845549662393,0.0,1.0,0.0,1.0,1.0,1.0, 1.0
536,0.0228,0.132,3.45,0.132,3.45,0.055596962674902106,0.0,-0.9984532927189561,0.0,1.0,0.0,1.0,1.0,1.0, 1.0
537,0.0228,0.132,3.45,0.132,3.45,0.055930605760426425,0.0,-0.9984346585226654,0.0,1.0,0.0,1.0,1.0,1.0, 1.0
538,0.0228,0.132,3.45,0.132,3.45,0.057183284631347656,0.0,-0.9983636972360174,0.0,1.0,0.0,1.0,1.0,1.0, 1.0
539,0.0228,0.132,3.45,0.132,3.45,0.06076156948885277,0.0,-0.9981523088553426,0.0,1.0,0.0,1.0,1.0,1.0, 1.0
540,0.0228,0.132,3.45,0.132,3.45,0.6664399785425138,0.0,-0.7455586864897047,0.0,1.0,0.0,1.0,1.0,1.0, 1.0
541,0.0228,0.132,3.45,0.132,3.45,0.6666435437391166,0.0,-0.7453766736294828,0.0,1.0,0.0,1.0,1.0,1.0, 1.0
542,0.0228,0.132,3.45,0.132,3.45,0.6668967518346699,0.0,-0.7451501341289329,0.0,1.0,0.0,1.0,1.0,1.0, 1.0
543,0.0228,0.132,3.45,0.132,3.45,0.6672411258858537,0.0,-0.7448417818077732,0.0,1.0,0.0,1.0,1.0,1.0, 1.0
544,0.0228,0.132,3.45,0.132,3.45,0.6680225982644652,0.0,-0.7441409867813982,0.0,1.0,0.0,1.0,1.0,1.0, 1.0
545,0.0228,0.132,3.45,0.132,3.45,0.6703997638366564,0.0,-0.742000105557779,0.0,1.0,0.0,1.0,1.0,1.0, 1.0
546,0.0228,0.132,3.45,0.132,3.45,0.6773390808986293,0.0,-0.735670965505232,0.0,1.0,0.0,1.0,1.0,1.0, 1.0
547,0.0228,0.132,3.45,0.132,3.45,0.5789119453601017,0.0,-0.8153900658699385,0.0,1.0,0.0,1.0,1.0,1.0, 1.0
548,0.0228,0.132,3.45,0.132,3.45,0.5794327715873389,0.0,-0.815020038533173,0.0,1.0,0.0,1.0,1.0,1.0, 1.0
549,0.0228,0.132,3.45,0.132,3.45,0.5800899897531837,0.0,-0.8145523947470482,0.0,1.0,0.0,1.0,1.0,1.0, 1.0
550,0.0228,0.132,3.45,0.132,3.45,0.5810116753273324,0.0,-0.8138952224539265,0.0,1.0,0.0,1.0,1.0,1.0, 1.0
551,0.0228,0.132,3.45,0.132,3.45,0.583021623547382,0.0,-0.8124566366743364,0.0,1.0,0.0,1.0,1.0,1.0, 1.0
552,0.0228,0.132,3.45,0.132,3.45,0.5891535447200653,0.0,-0.8080211016698648,0.0,1.0,0.0,1.0,1.0,1.0, 1.0
553,0.0228,0.132,3.45,0.132,3.45,0.6061747521395024,0.0,-0.7953314842684229,0.0,1.0,0.0,1.0,1.0,1.0, 1.0
554,0.0228,0.132,3.45,0.132,3.45,0.48395926219944707,0.0,-0.8750905281920076,0.0,1.0,0.0,1.0,1.0,1.0, 1.0
555,0.0228,0.132,3.45,0.132,3.45,0.48449328077473075,0.0,-0.8747949822010515,0.0,1.0,0.0,1.0,1.0,1.0, 1.0
556,0.0228,0.132,3.45,0.132,3.45,0.4852169424045025,0.0,-0.8743938007577738,0.0,1.0,0.0,1.0,1.0,1.0, 1.0
557,0.0228,0.132,3.45,0.132,3.45,0.4863161551854571,0.0,-0.873782923388661,0.0,1.0,0.0,1.0,1.0,1.0, 1.0
558,0.0228,0.132,3.45,0.132,3.45,0.4887245077218245,0.0,-0.8724381671798068,0.0,1.0,0.0,1.0,1.0,1.0, 1.0
559,0.0228,0.132,3.45,0.132,3.45,0.49608404041667986,0.0,-0.8682745100737795,0.0,1.0,0.0,1.0,1.0,1.0, 1.0
560,0.0228,0.132,3.45,0.132,3.45,0.515932916324999,0.0,-0.8566289896170812,0.0,1.0,0.0,1.0,1.0,1.0, 1.0
561,0.0228,0.132,3.45,0.132,3.45,0.38276978297946596,0.0,-0.9238437601877563,0.0,1.0,0.0,1.0,1.0,1.0, 1.0
562,0.0228,0.132,3.45,0.132,3.45,0.3830165309239414,0.0,-0.9237414882092226,0.0,1.0,0.0,1.0,1.0,1.0, 1.0
563,0.0228,0.132,3.45,0.132,3.45,0.3834763224644224,0.0,-0.923550707925213,0.0,1.0,0.0,1.0,1.0,1.0, 1.0
564,0.0228,0.132,3.45,0.132,3.45,0.3843416141734045,0.0,-0.9231909464539727,0.0,1.0,0.0,1.0,1.0,1.0, 1.0
565,0.0228,0.132,3.45,0.132,3.45,0.3865034019740694,0.0,-0.9222879811981022,0.0,1.0,0.0,1.0,1.0,1.0, 1.0
566,0.0228,0.132,3.45,0.132,3.45,0.39333982484137037,0.0,-0.9193931597492773,0.0,1.0,0.0,1.0,1.0,1.0, 1.0
567,0.0228,0.132,3.45,0.132,3.45,0.4120660319539444,0.0,-0.9111539855094367,0.0,1.0,0.0,1.0,1.0,1.0, 1.0
568,0.0228,0.132,3.45,0.132,3.45,0.2767334131833425,0.0,-0.960946730067748,0.0,1.0,0.0,1.0,1.0,1.0, 1.0
569,0.0228,0.132,3.45,0.132,3.45,0.27661375381113085,0.0,-0.9609811815027987,0.0,1.0,0.0,1.0,1.0,1.0, 1.0
570,0.0228,0.132,3.45,0.132,3.45,0.2767055024691269,0.0,-0.9609547673555233,0.0,1.0,0.0,1.0,1.0,1.0, 1.0
571,0.0228,0.132,3.45,0.132,3.45,0.277160669655641,0.0,-0.960823585886627,0.0,1.0,0.0,1.0,1.0,1.0, 1.0
572,0.0228,0.132,3.45,0.132,3.45,0.2787096164320512,0.0,-0.960375421232915,0.0,1.0,0.0,1.0,1.0,1.0, 1.0
573,0.0228,0.132,3.45,0.132,3.45,0.2841056208930146,0.0,-0.9587929892197766,0.0,1.0,0.0,1.0,1.0,1.0, 1.0
574,0.0228,0.132,3.45,0.132,3.45,0.2992903822378981,0.0,-0.9541620759073862,0.0,1.0,0.0,1.0,1.0,1.0, 1.0
575,0.0228,0.132,3.45,0.132,3.45,0.16731410652969758,0.0,-0.9859036412125523,0.0,1.0,0.0,1.0,1.0,1.0, 1.0
576,0.0228,0.132,3.45,0.132,3.45,0.16701098095474376,0.0,-0.9859550356078791,0.0,1.0,0.0,1.0,1.0,1.0, 1.0
577,0.0228,0.132,3.45,0.132,3.45,0.1668880167282766,0.0,-0.9859758566377285,0.0,1.0,0.0,1.0,1.0,1.0, 1.0
578,0.0228,0.132,3.45,0.132,3.45,0.16702756674503694,0.0,-0.9859522259963879,0.0,1.0,0.0,1.0,1.0,1.0, 1.0
579,0.0228,0.132,3.45,0.132,3.45,0.16790688346615903,0.0,-0.9858028598480943,0.0,1.0,0.0,1.0,1.0,1.0, 1.0
580,0.0228,0.132,3.45,0.132,3.45,0.17134197825905986,0.0,-0.9852116150788478,0.0,1.0,0.0,1.0,1.0,1.0, 1.0
581,0.0228,0.132,3.45,0.132,3.45,0.18131792139730848,0.0,-0.9834245326308264,0.0,1.0,0.0,1.0,1.0,1.0, 1.0
582,0.0228,0.132,3.45,0.132,3.45,0.0559457145333756,0.0,-0.9984338120403125,0.0,1.0,0.0,1.0,1.0,1.0, 1.0
583,0.0228,0.132,3.45,0.132,3.45,0.055760681278046016,0.0,-0.9984441628971588,0.0,1.0,0.0,1.0,1.0,1.0, 1.0
584,0.0228,0.132,3.45,0.132,3.45,0.055682902282482266,0.0,-0.9984485036262007,0.0,1.0,0.0,1.0,1.0,1.0, 1.0
585,0.0228,0.132,3.45,0.132,3.45,0.055708862548199255,0.0,-0.9984470554984805,0.0,1.0,0.0,1.0,1.0,1.0, 1.0
586,0.0228,0.132,3.45,0.132,3.45,0.05599614687944963,0.0,-0.9984309848630776,0.0,1.0,0.0,1.0,1.0,1.0, 1.0
587,0.0228,0.132,3.45,0.132,3.45,0.05718046037968142,0.0,-0.9983638589966924,0.0,1.0,0.0,1.0,1.0,1.0, 1.0
588,0.0228,0.132,3.45,0.132,3.45,0.06070645775547199,0.0,-0.9981556622024358,0.0,1.0,0.0,1.0,1.0,1.0, 1.0
589,0.0228,0.132,3.45,0.132,3.45,-0.061315643535337576,0.0,-0.9981184257681287,0.0,1.0,0.0,1.0,1.0,1.0, 1.0
590,0.0228,0.132,3.45,0.132,3.45,-0.18309341368445495,0.0,-0.9830955202142735,0.0,1.0,0.0,1.0,1.0,1.0, 1.0
591,0.0228,0.132,3.45,0.132,3.45,-0.3016188436907655,0.0,-0.9534285883749477,0.0,1.0,0.0,1.0,1.0,1.0, 1.0
592,0.0228,0.132,3.45,0.132,3.45,-0.41422186769567443,0.0,-0.9101759414106194,0.0,1.0,0.0,1.0,1.0,1.0, 1.0
593,0.0228,0.132,3.45,0.132,3.45,-0.5174537190556939,0.0,-0.8557111946418785,0.0,1.0,0.0,1.0,1.0,1.0, 1.0
594,0.0228,0.132,3.45,0.132,3.45,-0.6069955173850573,0.0,-0.7947052547167702,0.0,1.0,0.0,1.0,1.0,1.0, 1.0
595,0.0228,0.132,3.45,0.132,3.45,-0.6776692956945749,0.0,-0.7353667966891209,0.0,1.0,0.0,1.0,1.0,1.0, 1.0
596,0.0228,0.132,3.45,0.132,3.45,-0.057337059299288125,0.0,-0.9983548776016021,0.0,1.0,0.0,1.0,1.0,1.0, 1.0
597,0.0228,0.132,3.45,0.132,3.45,-0.17183033003127143,0.0,-0.9851265592203594,0.0,1.0,0.0,1.0,1.0,1.0, 1.0
598,0.0228,0.132,3.45,0.132,3.45,-0.2847567797062895,0.0,-0.9585997999224201,0.0,1.0,0.0,1.0,1.0,1.0, 1.0
599,0.0228,0.132,3.45,0.132,3.45,-0.39395155608228444,0.0,-0.919131204703848,0.0,1.0,0.0,1.0,1.0,1.0, 1.0
600,0.0228,0.132,3.45,0.132,3.45,-0.49651773973299335,0.0,-0.8680265745531295,0.0,1.0,0.0,1.0,1.0,1.0, 1.0
601,0.0228,0.132,3.45,0.132,3.45,-0.5893918669910532,0.0,-0.8078472795799962,0.0,1.0,0.0,1.0,1.0,1.0, 1.0
602,0.0228,0.132,3.45,0.132,3.45,-0.6705022086720472,0.0,-0.7419075334338547,0.0,1.0,0.0,1.0,1.0,1.0, 1.0
603,0.0228,0.132,3.45,0.132,3.45,-0.05596382148165205,0.0,-0.9984327972804028,0.0,1.0,0.0,1.0,1.0,1.0, 1.0
604,0.0228,0.132,3.45,0.132,3.45,-0.16786864163220702,0.0,-0.9858093726256398,0.0,1.0,0.0,1.0,1.0,1.0, 1.0
605,0.0228,0.132,3.45,0.132,3.45,-0.27866212020139475,0.0,-0.9603892037944115,0.0,1.0,0.0,1.0,1.0,1.0, 1.0
606,0.0228,0.132,3.45,0.132,3.45,-0.38643501530276325,0.0,-0.9223166370330491,0.0,1.0,0.0,1.0,1.0,1.0, 1.0
607,0.0228,0.132,3.45,0.132,3.45,-0.4886408863650563,0.0,-0.872485005127522,0.0,1.0,0.0,1.0,1.0,1.0, 1.0
608,0.0228,0.132,3.45,0.132,3.45,-0.5829572546848635,0.0,-0.8125028241244994,0.0,1.0,0.0,1.0,1.0,1.0, 1.0
609,0.0228,0.132,3.45,0.132,3.45,-0.668006905542578,0.0,-0.7441550739915905,0.0,1.0,0.0,1.0,1.0,1.0, 1.0
610,0.0228,0.132,3.45,0.132,3.45,-0.05560372288024098,0.0,-0.9984529162668901,0.0,1.0,0.0,1.0,1.0,1.0, 1.0
611,0.0228,0.132,3.45,0.132,3.45,-0.16679624367960094,0.0,-0.9859913859128664,0.0,1.0,0.0,1.0,1.0,1.0, 1.0
612,0.0228,0.132,3.45,0.132,3.45,-0.27685692179473853,0.0,-0.960911153465471,0.0,1.0,0.0,1.0,1.0,1.0, 1.0
613,0.0228,0.132,3.45,0.132,3.45,-0.38401730859514926,0.0,-0.9233258940912129,0.0,1.0,0.0,1.0,1.0,1.0, 1.0
614,0.0228,0.132,3.45,0.132,3.45,-0.4860202491475368,0.0,-0.8739475484367275,0.0,1.0,0.0,1.0,1.0,1.0, 1.0
615,0.0228,0.132,3.45,0.132,3.45,-0.5808107162635822,0.0,-0.8140386427396334,0.0,1.0,0.0,1.0,1.0,1.0, 1.0
616,0.0228,0.132,3.45,0.132,3.45,-0.6671749952284127,0.0,-0.7449010174123589,0.0,1.0,0.0,1.0,1.0,1.0, 1.0
617,0.0228,0.132,3.45,0.132,3.45,-0.0555585907633219,0.0,-0.9984554286458628,0.0,1.0,0.0,1.0,1.0,1.0, 1.0
618,0.0228,0.132,3.45,0.132,3.45,-0.16661059768030811,0.0,-0.9860227729320507,0.0,1.0,0.0,1.0,1.0,1.0, 1.0
619,0.0228,0.132,3.45,0.132,3.45,-0.27634582720648754,0.0,-0.9610582624303078,0.0,1.0,0.0,1.0,1.0,1.0, 1.0
620,0.0228,0.132,3.45,0.132,3.45,-0.3831004183661486,0.0,-0.9237067009866725,0.0,1.0,0.0,1.0,1.0,1.0, 1.0
621,0.0228,0.132,3.45,0.132,3.45,-0.4848815369588934,0.0,-0.8745798391892996,0.0,1.0,0.0,1.0,1.0,1.0, 1.0
622,0.0228,0.132,3.45,0.132,3.45,-0.5798602198280354,0.0,-0.8147159784004377,0.0,1.0,0.0,1.0,1.0,1.0, 1.0
623,0.0228,0.132,3.45,0.132,3.45,-0.6668188693296512,0.0,-0.74521983032252,0.0,1.0,0.0,1.0,1.0,1.0, 1.0
624,0.0228,0.132,3.45,0.132,3.45,-0.05565584056268337,0.0,-0.9984500124749668,0.0,1.0,0.0,1.0,1.0,1.0, 1.0
625,0.0228,0.132,3.45,0.132,3.45,-0.16678606128524526,0.0,-0.9859931083739655,0.0,1.0,0.0,1.0,1.0,1.0, 1.0
626,0.0228,0.132,3.45,0.132,3.45,-0.2763289212547029,0.0,-0.9610631234618319,0.0,1.0,0.0,1.0,1.0,1.0, 1.0
627,0.0228,0.132,3.45,0.132,3.45,-0.38271829570075216,0.0,-0.9238650908741556,0.0,1.0,0.0,1.0,1.0,1.0, 1.0
628,0.0228,0.132,3.45,0.132,3.45,-0.4842327249601958,0.0,-0.8749392367916892,0.0,1.0,0.0,1.0,1.0,1.0, 1.0
629,0.0228,0.132,3.45,0.132,3.45,-0.5792621682371084,0.0,-0.815141300909998,0.0,1.0,0.0,1.0,1.0,1.0, 1.0
630,0.0228,0.132,3.45,0.132,3.45,-0.6665865955119749,0.0,-0.745427602577041,0.0,1.0,0.0,1.0,1.0,1.0, 1.0
631,0.0228,0.132,3.45,0.132,3.45,-0.05590292501410232,0.0,-0.998436208765922,0.0,1.0,0.0,1.0,1.0,1.0, 1.0
632,0.0228,0.132,3.45,0.132,3.45,-0.16722596703338413,0.0,-0.9859185949913661,0.0,1.0,0.0,1.0,1.0,1.0, 1.0
633,0.0228,0.132,3.45,0.132,3.45,-0.2766231241189376,0.0,-0.9609784842558541,0.0,1.0,0.0,1.0,1.0,1.0, 1.0
634,0.0228,0.132,3.45,0.132,3.45,-0.38265219778102216,0.0,-0.9238924696810519,0.0,1.0,0.0,1.0,1.0,1.0, 1.0
635,0.0228,0.132,3.45,0.132,3.45,-0.4838594553093973,0.0,-0.8751457178708545,0.0,1.0,0.0,1.0,1.0,1.0, 1.0
636,0.0228,0.132,3.45,0.132,3.45,-0.5788507837426304,0.0,-0.8154334860431859,0.0,1.0,0.0,1.0,1.0,1.0, 1.0
637,0.0228,0.132,3.45,0.132,3.45,-0.6664191092091687,0.0,-0.7455773406433823,0.0,1.0,0.0,1.0,1.0,1.0, 1.0
638,0.0228,0.132,3.45,0.132,3.45,-0.061249495403961386,0.0,-0.9981224871290898,0.0,1.0,0.0,1.0,1.0,1.0, 1.0
639,0.0228,0.132,3.45,0.132,3.45,-0.18274767783473367,0.0,-0.9831598477592606,0.0,1.0,0.0,1.0,1.0,1.0, 1.0
640,0.0228,0.132,3.45,0.132,3.45,-0.3010941933850457,0.0,-0.9535944036695101,0.0,1.0,0.0,1.0,1.0,1.0, 1.0
641,0.0228,0.132,3.45,0.132,3.45,-0.4136781497875642,0.0,-0.910423191921393,0.0,1.0,0.0,1.0,1.0,1.0, 1.0
642,0.0228,0.132,3.45,0.132,3.45,-0.5170162733195657,0.0,-0.8559755680641522,0.0,1.0,0.0,1.0,1.0,1.0, 1.0
643,0.0228,0.132,3.45,0.132,3.45,-0.6067459246890153,0.0,-0.794895831460495,0.0,1.0,0.0,1.0,1.0,1.0, 1.0
644,0.0228,0.132,3.45,0.132,3.45,-0.6775959775784283,0.0,-0.7354343554454973,0.0,1.0,0.0,1.0,1.0,1.0, 1.0
645,0.0228,0.132,3.45,0.132,3.45,-0.05732817467874263,0.0,-0.9983553878193895,0.0,1.0,0.0,1.0,1.0,1.0, 1.0
646,0.0228,0.132,3.45,0.132,3.45,-0.17173073963239405,0.0,-0.9851439250512134,0.0,1.0,0.0,1.0,1.0,1.0, 1.0
647,0.0228,0.132,3.45,0.132,3.45,-0.2845936841226046,0.0,-0.9586482331687276,0.0,1.0,0.0,1.0,1.0,1.0, 1.0
648,0.0228,0.132,3.45,0.132,3.45,-0.39377458542374094,0.0,-0.9192070364582514,0.0,1.0,0.0,1.0,1.0,1.0, 1.0
649,0.0228,0.132,3.45,0.132,3.45,-0.49636736570947965,0.0,-0.868112572342223,0.0,1.0,0.0,1.0,1.0,1.0, 1.0
650,0.0228,0.132,3.45,0.132,3.45,-0.5892996663938184,0.0,-0.8079145395325761,0.0,1.0,0.0,1.0,1.0,1.0, 1.0
651,0.0228,0.132,3.45,0.132,3.45,-0.670473912640207,0.0,-0.7419331051172553,0.0,1.0,0.0,1.0,1.0,1.0, 1.0
652,0.0228,0.132,3.45,0.132,3.45,-0.056026654369683654,0.0,-0.9984292734090583,0.0,1.0,0.0,1.0,1.0,1.0, 1.0
653,0.0228,0.132,3.45,0.132,3.45,-0.16798598775149645,0.0,-0.9857893831438611,0.0,1.0,0.0,1.0,1.0,1.0, 1.0
654,0.0228,0.132,3.45,0.132,3.45,-0.2788097759172841,0.0,-0.9603463483832038,0.0,1.0,0.0,1.0,1.0,1.0, 1.0
655,0.0228,0.132,3.45,0.132,3.45,-0.38659572127791636,0.0,-0.9222492874974789,0.0,1.0,0.0,1.0,1.0,1.0, 1.0
656,0.0228,0.132,3.45,0.132,3.45,-0.48878167355907703,0.0,-0.8724061414231262,0.0,1.0,0.0,1.0,1.0,1.0, 1.0
657,0.0228,0.132,3.45,0.132,3.45,-0.5830544295117507,0.0,-0.8124330940001933,0.0,1.0,0.0,1.0,1.0,1.0, 1.0
658,0.0228,0.132,3.45,0.132,3.45,-0.6680417857148987,0.0,-0.7441237615738725,0.0,1.0,0.0,1.0,1.0,1.0, 1.0
659,0.0228,0.132,3.45,0.132,3.45,-0.055714534163860255,0.0,-0.9984467390316341,0.0,1.0,0.0,1.0,1.0,1.0, 1.0
660,0.0228,0.132,3.45,0.132,3.45,-0.16704164876575148,0.0,-0.9859498402949408,0.0,1.0,0.0,1.0,1.0,1.0, 1.0
661,0.0228,0.132,3.45,0.132,3.45,-0.2771787477637296,0.0,-0.9608183708631568,0.0,1.0,0.0,1.0,1.0,1.0, 1.0
662,0.0228,0.132,3.45,0.132,3.45,-0.38435796555743457,0.0,-0.923184138897842,0.0,1.0,0.0,1.0,1.0,1.0, 1.0
663,0.0228,0.132,3.45,0.132,3.45,-0.48632425030739307,0.0,-0.8737784178857658,0.0,1.0,0.0,1.0,1.0,1.0, 1.0
664,0.0228,0.132,3.45,0.132,3.45,-0.5810199562615117,0.0,-0.8138893109175664,0.0,1.0,0.0,1.0,1.0,1.0, 1.0
665,0.0228,0.132,3.45,0.132,3.45,-0.6672465375326341,0.0,-0.7448369339329992,0.0,1.0,0.0,1.0,1.0,1.0, 1.0
666,0.0228,0.132,3.45,0.132,3.45,-0.05568392491906973,0.0,-0.9984484465938176,0.0,1.0,0.0,1.0,1.0,1.0, 1.0
667,0.0228,0.132,3.45,0.132,3.45,-0.16689051198833058,0.0,-0.9859754342823521,0.0,1.0,0.0,1.0,1.0,1.0, 1.0
668,0.0228,0.132,3.45,0.132,3.45,-0.27670881967791033,0.0,-0.9609538121639655,0.0,1.0,0.0,1.0,1.0,1.0, 1.0
669,0.0228,0.132,3.45,0.132,3.45,-0.38347938445782953,0.0,-0.923549436519694,0.0,1.0,0.0,1.0,1.0,1.0, 1.0
670,0.0228,0.132,3.45,0.132,3.45,-0.48521811784138597,0.0,-0.8743931484855442,0.0,1.0,0.0,1.0,1.0,1.0, 1.0
671,0.0228,0.132,3.45,0.132,3.45,-0.5800899897531837,0.0,-0.8145523947470482,0.0,1.0,0.0,1.0,1.0,1.0, 1.0
672,0.0228,0.132,3.45,0.132,3.45,-0.6668967518346698,0.0,-0.745150134128933,0.0,1.0,0.0,1.0,1.0,1.0, 1.0
673,0.0228,0.132,3.45,0.132,3.45,-0.055760681278046016,0.0,-0.9984441628971588,0.0,1.0,0.0,1.0,1.0,1.0, 1.0
674,0.0228,0.132,3.45,0.132,3.45,-0.1670109809547439,0.0,-0.9859550356078791,0.0,1.0,0.0,1.0,1.0,1.0, 1.0
675,0.0228,0.132,3.45,0.132,3.45,-0.2766142252027852,0.0,-0.9609810458148813,0.0,1.0,0.0,1.0,1.0,1.0, 1.0
676,0.0228,0.132,3.45,0.132,3.45,-0.3830169663963562,0.0,-0.9237413076465362,0.0,1.0,0.0,1.0,1.0,1.0, 1.0
677,0.0228,0.132,3.45,0.132,3.45,-0.4844932807747309,0.0,-0.8747949822010513,0.0,1.0,0.0,1.0,1.0,1.0, 1.0
678,0.0228,0.132,3.45,0.132,3.45,-0.5794327715873389,0.0,-0.8150200385331731,0.0,1.0,0.0,1.0,1.0,1.0, 1.0
679,0.0228,0.132,3.45,0.132,3.45,-0.6666435437391166,0.0,-0.7453766736294828,0.0,1.0,0.0,1.0,1.0,1.0, 1.0
680,0.0228,0.132,3.45,0.132,3.45,-0.0559457145333756,0.0,-0.9984338120403125,0.0,1.0,0.0,1.0,1.0,1.0, 1.0
681,0.0228,0.132,3.45,0.132,3.45,-0.1673141065296976,0.0,-0.9859036412125523,0.0,1.0,0.0,1.0,1.0,1.0, 1.0
682,0.0228,0.132,3.45,0.132,3.45,-0.27673341318334255,0.0,-0.960946730067748,0.0,1.0,0.0,1.0,1.0,1.0, 1.0
683,0.0228,0.132,3.45,0.132,3.45,-0.3827697829794659,0.0,-0.9238437601877564,0.0,1.0,0.0,1.0,1.0,1.0, 1.0
684,0.0228,0.132,3.45,0.132,3.45,-0.48395926219944685,0.0,-0.8750905281920076,0.0,1.0,0.0,1.0,1.0,1.0, 1.0
685,0.0228,0.132,3.45,0.132,3.45,-0.5789119453601018,0.0,-0.8153900658699382,0.0,1.0,0.0,1.0,1.0,1.0, 1.0
686,0.0228,0.132,3.45,0.132,3.45,-0.6664399785425137,0.0,-0.7455586864897049,0.0,1.0,0.0,1.0,1.0,1.0, 1.0
687,0.0228,0.132,3.45,0.132,3.45,-0.9976480666651762,0.0,-0.06854440224581274,0.0,1.0,0.0,1.0,1.0,1.0, 1.0
688,0.0228,0.132,3.45,0.132,3.45,-0.9790921494652705,0.0,-0.20341721376392013,0.0,1.0,0.0,1.0,1.0,1.0, 1.0
689,0.0228,0.132,3.45,0.132,3.45,-0.943165363633088,0.0,-0.3323237831435859,0.0,1.0,0.0,1.0,1.0,1.0, 1.0
690,0.0228,0.132,3.45,0.132,3.45,-0.8921126079922529,0.0,-0.4518131191778974,0.0,1.0,0.0,1.0,1.0,1.0, 1.0
691,0.0228,0.132,3.45,0.132,3.45,-0.8300832548324331,0.0,-0.5576394803515924,0.0,1.0,0.0,1.0,1.0,1.0, 1.0
692,0.0228,0.132,3.45,0.132,3.45,-0.7644048949648796,0.0,-0.6447365016452313,0.0,1.0,0.0,1.0,1.0,1.0, 1.0
693,0.0228,0.132,3.45,0.132,3.45,-0.7074272123112619,0.0,-0.7067862047900461,0.0,1.0,0.0,1.0,1.0,1.0, 1.0
694,0.0228,0.132,3.45,0.132,3.45,-0.9966121025953184,0.0,-0.08224546772034791,0.0,1.0,0.0,1.0,1.0,1.0, 1.0
695,0.0228,0.132,3.45,0.132,3.45,-0.9706067029088502,0.0,-0.2406712036543031,0.0,1.0,0.0,1.0,1.0,1.0, 1.0
696,0.0228,0.132,3.45,0.132,3.45,-0.9224548220665797,0.0,-0.3861050391358737,0.0,1.0,0.0,1.0,1.0,1.0, 1.0
697,0.0228,0.132,3.45,0.132,3.45,-0.8575959862614992,0.0,-0.5143239488378568,0.0,1.0,0.0,1.0,1.0,1.0, 1.0
698,0.0228,0.132,3.45,0.132,3.45,-0.7831506181241742,0.0,-0.6218320587841416,0.0,1.0,0.0,1.0,1.0,1.0, 1.0
699,0.0228,0.132,3.45,0.132,3.45,-0.7086312374632426,0.0,-0.7055790312157195,0.0,1.0,0.0,1.0,1.0,1.0, 1.0
700,0.0228,0.132,3.45,0.132,3.45,-0.6462320071835833,0.0,-0.7631410045931728,0.0,1.0,0.0,1.0,1.0,1.0, 1.0
701,0.0228,0.132,3.45,0.132,3.45,-0.9946105255426578,0.0,-0.10368173648120495,0.0,1.0,0.0,1.0,1.0,1.0, 1.0
702,0.0228,0.132,3.45,0.132,3.45,-0.954924455360174,0.0,-0.2968489254740109,0.0,1.0,0.0,1.0,1.0,1.0, 1.0
703,0.0228,0.132,3.45,0.132,3.45,-0.8864547344753587,0.0,-0.4628153019577262,0.0,1.0,0.0,1.0,1.0,1.0, 1.0
704,0.0228,0.132,3.45,0.132,3.45,-0.8015537981820398,0.0,-0.5979226610690935,0.0,1.0,0.0,1.0,1.0,1.0, 1.0
705,0.0228,0.132,3.45,0.132,3.45,-0.7116452611856781,0.0,-0.7025389827133923,0.0,1.0,0.0,1.0,1.0,1.0, 1.0
706,0.0228,0.132,3.45,0.132,3.45,-0.6276719859534178,0.0,-0.7784779239318818,0.0,1.0,0.0,1.0,1.0,1.0, 1.0
707,0.0228,0.132,3.45,0.132,3.45,-0.5604808529505979,0.0,-0.8281673825234668,0.0,1.0,0.0,1.0,1.0,1.0, 1.0
708,0.0228,0.132,3.45,0.132,3.45,-0.9905806332321273,0.0,-0.13693067247858473,0.0,1.0,0.0,1.0,1.0,1.0, 1.0
709,0.0228,0.132,3.45,0.132,3.45,-0.9254445720638973,0.0,-0.37888302157456183,0.0,1.0,0.0,1.0,1.0,1.0, 1.0
710,0.0228,0.132,3.45,0.132,3.45,-0.8251983547726893,0.0,-0.564843053671059,0.0,1.0,0.0,1.0,1.0,1.0, 1.0
711,0.0228,0.132,3.45,0.132,3.45,-0.7157081910784712,0.0,-0.6983994453199277,0.0,1.0,0.0,1.0,1.0,1.0, 1.0
712,0.0228,0.132,3.45,0.132,3.45,-0.6120395024103962,0.0,-0.7908271919257928,0.0,1.0,0.0,1.0,1.0,1.0, 1.0
713,0.0228,0.132,3.45,0.132,3.45,-0.5231220647499916,0.0,-0.8522577693231699,0.0,1.0,0.0,1.0,1.0,1.0, 1.0
714,0.0228,0.132,3.45,0.132,3.45,-0.45604545355074994,0.0,-0.8899564844955572,0.0,1.0,0.0,1.0,1.0,1.0, 1.0
715,0.0228,0.132,3.45,0.132,3.45,-0.981065899784822,0.0,-0.1936742117045989,0.0,1.0,0.0,1.0,1.0,1.0, 1.0
716,0.0228,0.132,3.45,0.132,3.45,-0.8641593888087354,0.0,-0.50321819396134,0.0,1.0,0.0,1.0,1.0,1.0, 1.0
717,0.0228,0.132,3.45,0.132,3.45,-0.7178729768864969,0.0,-0.6961741082919698,0.0,1.0,0.0,1.0,1.0,1.0, 1.0
718,0.0228,0.132,3.45,0.132,3.45,-0.5868713000226278,0.0,-0.8096802314554499,0.0,1.0,0.0,1.0,1.0,1.0, 1.0
719,0.0228,0.132,3.45,0.132,3.45,-0.47965654707504335,0.0,-0.877456321903288,0.0,1.0,0.0,1.0,1.0,1.0, 1.0
720,0.0228,0.132,3.45,0.132,3.45,-0.39630674899582663,0.0,-0.9181181627112923,0.0,1.0,0.0,1.0,1.0,1.0, 1.0
721,0.0228,0.132,3.45,0.132,3.45,-0.33716483948135473,0.0,-0.9414456282853049,0.0,1.0,0.0,1.0,1.0,1.0, 1.0
722,0.0228,0.132,3.45,0.132,3.45,-0.9491043005946559,0.0,-0.3149619446738434,0.0,1.0,0.0,1.0,1.0,1.0, 1.0
723,0.0228,0.132,3.45,0.132,3.45,-0.7157747013034423,0.0,-0.6983312802488286,0.0,1.0,0.0,1.0,1.0,1.0, 1.0
724,0.0228,0.132,3.45,0.132,3.45,-0.5253863201097221,0.0,-0.8508638049897085,0.0,1.0,0.0,1.0,1.0,1.0, 1.0
725,0.0228,0.132,3.45,0.132,3.45,-0.39869185091109177,0.0,-0.9170849513633335,0.0,1.0,0.0,1.0,1.0,1.0, 1.0
726,0.0228,0.132,3.45,0.132,3.45,-0.3110830933899764,0.0,-0.9503827171234351,0.0,1.0,0.0,1.0,1.0,1.0, 1.0
727,0.0228,0.132,3.45,0.132,3.45,-0.2490387814267955,0.0,-0.9684935133213112,0.0,1.0,0.0,1.0,1.0,1.0, 1.0
728,0.0228,0.132,3.45,0.132,3.45,-0.2073570775330502,0.0,-0.9782653231086915,0.0,1.0,0.0,1.0,1.0,1.0, 1.0
729,0.0228,0.132,3.45,0.132,3.45,-0.7101218827239878,0.0,-0.7040787680909991,0.0,1.0,0.0,1.0,1.0,1.0, 1.0
730,0.0228,0.132,3.45,0.132,3.45,-0.32543943742396214,0.0,-0.9455628866284753,0.0,1.0,0.0,1.0,1.0,1.0, 1.0
731,0.0228,0.132,3.45,0.132,3.45,-0.2034598614967089,0.0,-0.9790832879585578,0.0,1.0,0.0,1.0,1.0,1.0, 1.0
732,0.0228,0.132,3.45,0.132,3.45,-0.14482310478631646,0.0,-0.9894575626675718,0.0,1.0,0.0,1.0,1.0,1.0, 1.0
733,0.0228,0.132,3.45,0.132,3.45,-0.10928188686116826,0.0,-0.9940107993397571,0.0,1.0,0.0,1.0,1.0,1.0, 1.0
734,0.0228,0.132,3.45,0.132,3.45,-0.08546381927371835,0.0,-0.9963412746620253,0.0,1.0,0.0,1.0,1.0,1.0, 1.0
735,0.0228,0.132,3.45,0.132,3.45,-0.0700593538168289,0.0,-0.9975428246159501,0.0,1.0,0.0,1.0,1.0,1.0, 1.0
736,0.0228,0.132,3.45,0.132,3.45,-0.9976514117557157,0.0,-0.06849569783444179,0.0,1.0,0.0,1.0,1.0,1.0, 1.0
737,0.0228,0.132,3.45,0.132,3.45,-0.979196373006202,0.0,-0.20291491589210175,0.0,1.0,0.0,1.0,1.0,1.0, 1.0
738,0.0228,0.132,3.45,0.132,3.45,-0.9434717735737149,0.0,-0.33145288122094935,0.0,1.0,0.0,1.0,1.0,1.0, 1.0
739,0.0228,0.132,3.45,0.132,3.45,-0.8925809442364822,0.0,-0.4508871898667225,0.0,1.0,0.0,1.0,1.0,1.0, 1.0
740,0.0228,0.132,3.45,0.132,3.45,-0.8305374476589179,0.0,-0.556962788735666,0.0,1.0,0.0,1.0,1.0,1.0, 1.0
741,0.0228,0.132,3.45,0.132,3.45,-0.7646572173395807,0.0,-0.6444372273313276,0.0,1.0,0.0,1.0,1.0,1.0, 1.0
742,0.0228,0.132,3.45,0.132,3.45,-0.7074445592265831,0.0,-0.7067688417160914,0.0,1.0,0.0,1.0,1.0,1.0, 1.0
743,0.0228,0.132,3.45,0.132,3.45,-0.9966114416907921,0.0,-0.08225347585969192,0.0,1.0,0.0,1.0,1.0,1.0, 1.0
744,0.0228,0.132,3.45,0.132,3.45,-0.9707210904846825,0.0,-0.24020941798403544,0.0,1.0,0.0,1.0,1.0,1.0, 1.0
745,0.0228,0.132,3.45,0.132,3.45,-0.9228187225730589,0.0,-0.3852344808926479,0.0,1.0,0.0,1.0,1.0,1.0, 1.0
746,0.0228,0.132,3.45,0.132,3.45,-0.8581349326941733,0.0,-0.5134242274084527,0.0,1.0,0.0,1.0,1.0,1.0, 1.0
747,0.0228,0.132,3.45,0.132,3.45,-0.7835945346593735,0.0,-0.6212725692093285,0.0,1.0,0.0,1.0,1.0,1.0, 1.0
748,0.0228,0.132,3.45,0.132,3.45,-0.7087508928619446,0.0,-0.7054588378264152,0.0,1.0,0.0,1.0,1.0,1.0, 1.0
749,0.0228,0.132,3.45,0.132,3.45,-0.6460485746054071,0.0,-0.763296298464968,0.0,1.0,0.0,1.0,1.0,1.0, 1.0
750,0.0228,0.132,3.45,0.132,3.45,-0.9946069613280495,0.0,-0.10371592200710564,0.0,1.0,0.0,1.0,1.0,1.0, 1.0
751,0.0228,0.132,3.45,0.132,3.45,-0.9549883333242569,0.0,-0.2966433603075551,0.0,1.0,0.0,1.0,1.0,1.0, 1.0
752,0.0228,0.132,3.45,0.132,3.45,-0.8866717188871499,0.0,-0.4623994625058586,0.0,1.0,0.0,1.0,1.0,1.0, 1.0
753,0.0228,0.132,3.45,0.132,3.45,-0.8018501600173377,0.0,-0.597525163386589,0.0,1.0,0.0,1.0,1.0,1.0, 1.0
754,0.0228,0.132,3.45,0.132,3.45,-0.7117948888216066,0.0,-0.702387383320228,0.0,1.0,0.0,1.0,1.0,1.0, 1.0
755,0.0228,0.132,3.45,0.132,3.45,-0.6274611105690628,0.0,-0.7786479016368298,0.0,1.0,0.0,1.0,1.0,1.0, 1.0
756,0.0228,0.132,3.45,0.132,3.45,-0.560002648078466,0.0,-0.8284908171760902,0.0,1.0,0.0,1.0,1.0,1.0, 1.0
757,0.0228,0.132,3.45,0.132,3.45,-0.9905825144735211,0.0,-0.13691706255728833,0.0,1.0,0.0,1.0,1.0,1.0, 1.0
758,0.0228,0.132,3.45,0.132,3.45,-0.9253113180135061,0.0,-0.3792083395128702,0.0,1.0,0.0,1.0,1.0,1.0, 1.0
759,0.0228,0.132,3.45,0.132,3.45,-0.8249210142165335,0.0,-0.5652480166298383,0.0,1.0,0.0,1.0,1.0,1.0, 1.0
760,0.0228,0.132,3.45,0.132,3.45,-0.7153565241009808,0.0,-0.6987596463922074,0.0,1.0,0.0,1.0,1.0,1.0, 1.0
761,0.0228,0.132,3.45,0.132,3.45,-0.6115425652385864,0.0,-0.7912115335998391,0.0,1.0,0.0,1.0,1.0,1.0, 1.0
762,0.0228,0.132,3.45,0.132,3.45,-0.5224748787797373,0.0,-0.8526546786619416,0.0,1.0,0.0,1.0,1.0,1.0, 1.0
763,0.0228,0.132,3.45,0.132,3.45,-0.455314322484132,0.0,-0.8903307631104385,0.0,1.0,0.0,1.0,1.0,1.0, 1.0
764,0.0228,0.132,3.45,0.132,3.45,-0.9810582435836472,0.0,-0.19371299052094834,0.0,1.0,0.0,1.0,1.0,1.0, 1.0
765,0.0228,0.132,3.45,0.132,3.45,-0.8635902028260851,0.0,-0.5041943688527283,0.0,1.0,0.0,1.0,1.0,1.0, 1.0
766,0.0228,0.132,3.45,0.132,3.45,-0.716640761307798,0.0,-0.6974424845334415,0.0,1.0,0.0,1.0,1.0,1.0, 1.0
767,0.0228,0.132,3.45,0.132,3.45,-0.5855213427565021,0.0,-0.810656991073674,0.0,1.0,0.0,1.0,1.0,1.0, 1.0
768,0.0228,0.132,3.45,0.132,3.45,-0.4784902507302712,0.0,-0.8780928652233101,0.0,1.0,0.0,1.0,1.0,1.0, 1.0
769,0.0228,0.132,3.45,0.132,3.45,-0.3952926258574729,0.0,-0.9185552459937857,0.0,1.0,0.0,1.0,1.0,1.0, 1.0
770,0.0228,0.132,3.45,0.132,3.45,-0.33636513368969817,0.0,-0.9417316479963448,0.0,1.0,0.0,1.0,1.0,1.0, 1.0
771,0.0228,0.132,3.45,0.132,3.45,-0.9490629054661879,0.0,-0.31508665707718814,0.0,1.0,0.0,1.0,1.0,1.0, 1.0
772,0.0228,0.132,3.45,0.132,3.45,-0.7142218336060879,0.0,-0.6999194042176269,0.0,1.0,0.0,1.0,1.0,1.0, 1.0
773,0.0228,0.132,3.45,0.132,3.45,-0.5230735435290637,0.0,-0.8522875501026334,0.0,1.0,0.0,1.0,1.0,1.0, 1.0
774,0.0228,0.132,3.45,0.132,3.45,-0.3967054751107659,0.0,-0.9179459493985153,0.0,1.0,0.0,1.0,1.0,1.0, 1.0
775,0.0228,0.132,3.45,0.132,3.45,-0.30973098615807015,0.0,-0.950824229925568,0.0,1.0,0.0,1.0,1.0,1.0, 1.0
776,0.0228,0.132,3.45,0.132,3.45,-0.24816404764234964,0.0,-0.9687180216439486,0.0,1.0,0.0,1.0,1.0,1.0, 1.0
777,0.0228,0.132,3.45,0.132,3.45,-0.2067711657342729,0.0,-0.9783893320252882,0.0,1.0,0.0,1.0,1.0,1.0, 1.0
778,0.0228,0.132,3.45,0.132,3.45,-0.7096275792692949,0.0,-0.704576964383878,0.0,1.0,0.0,1.0,1.0,1.0, 1.0
779,0.0228,0.132,3.45,0.132,3.45,-0.32323368697766053,0.0,-0.9463191763896722,0.0,1.0,0.0,1.0,1.0,1.0, 1.0
780,0.0228,0.132,3.45,0.132,3.45,-0.20174585026765704,0.0,-0.9794379060970533,0.0,1.0,0.0,1.0,1.0,1.0, 1.0
781,0.0228,0.132,3.45,0.132,3.45,-0.14371809240516706,0.0,-0.9896186689404256,0.0,1.0,0.0,1.0,1.0,1.0, 1.0
782,0.0228,0.132,3.45,0.132,3.45,-0.10866059814139599,0.0,-0.9940789075378041,0.0,1.0,0.0,1.0,1.0,1.0, 1.0
783,0.0228,0.132,3.45,0.132,3.45,-0.08527319551777279,0.0,-0.9963576075517202,0.0,1.0,0.0,1.0,1.0,1.0, 1.0
784,0.0228,0.132,3.45,0.132,3.45,-0.06993534641540759,0.0,-0.9975515261487784,0.0,1.0,0.0,1.0,1.0,1.0, 1.0
785,0.0228,0.132,3.45,0.132,3.45,-0.7455773406433822,0.0,-0.6664191092091687,0.0,1.0,0.0,1.0,1.0,1.0, 1.0
786,0.0228,0.132,3.45,0.132,3.45,-0.7454276025770409,0.0,-0.6665865955119749,0.0,1.0,0.0,1.0,1.0,1.0, 1.0
787,0.0228,0.132,3.45,0.132,3.45,-0.7452198303225199,0.0,-0.6668188693296513,0.0,1.0,0.0,1.0,1.0,1.0, 1.0
788,0.0228,0.132,3.45,0.132,3.45,-0.7449068087312549,0.0,-0.6671685291632226,0.0,1.0,0.0,1.0,1.0,1.0, 1.0
789,0.0228,0.132,3.45,0.132,3.45,-0.744175618032786,0.0,-0.6679840189147649,0.0,1.0,0.0,1.0,1.0,1.0, 1.0
790,0.0228,0.132,3.45,0.132,3.45,-0.7419783894697163,0.0,-0.6704237984737162,0.0,1.0,0.0,1.0,1.0,1.0, 1.0
791,0.0228,0.132,3.45,0.132,3.45,-0.735603328937485,0.0,-0.6774125349121393,0.0,1.0,0.0,1.0,1.0,1.0, 1.0
792,0.0228,0.132,3.45,0.132,3.45,-0.8154334860431859,0.0,-0.5788507837426304,0.0,1.0,0.0,1.0,1.0,1.0, 1.0
793,0.0228,0.132,3.45,0.132,3.45,-0.815141300909998,0.0,-0.5792621682371083,0.0,1.0,0.0,1.0,1.0,1.0, 1.0
794,0.0228,0.132,3.45,0.132,3.45,-0.8147159784004377,0.0,-0.5798602198280354,0.0,1.0,0.0,1.0,1.0,1.0, 1.0
795,0.0228,0.132,3.45,0.132,3.45,-0.8140457003042291,0.0,-0.5808008245657004,0.0,1.0,0.0,1.0,1.0,1.0, 1.0
796,0.0228,0.132,3.45,0.132,3.45,-0.8125314787278314,0.0,-0.5829173149567302,0.0,1.0,0.0,1.0,1.0,1.0, 1.0
797,0.0228,0.132,3.45,0.132,3.45,-0.807963187176272,0.0,-0.5892329659548594,0.0,1.0,0.0,1.0,1.0,1.0, 1.0
798,0.0228,0.132,3.45,0.132,3.45,-0.7951277415481968,0.0,-0.6064419795994205,0.0,1.0,0.0,1.0,1.0,1.0, 1.0
799,0.0228,0.132,3.45,0.132,3.45,-0.8751457178708545,0.0,-0.4838594553093971,0.0,1.0,0.0,1.0,1.0,1.0, 1.0
800,0.0228,0.132,3.45,0.132,3.45,-0.8749392367916892,0.0,-0.48423272496019565,0.0,1.0,0.0,1.0,1.0,1.0, 1.0
801,0.0228,0.132,3.45,0.132,3.45,-0.8745806194433962,0.0,-0.4848801296135007,0.0,1.0,0.0,1.0,1.0,1.0, 1.0
802,0.0228,0.132,3.45,0.132,3.45,-0.8739529245615081,0.0,-0.4860105818296418,0.0,1.0,0.0,1.0,1.0,1.0, 1.0
803,0.0228,0.132,3.45,0.132,3.45,-0.8725200046383768,0.0,-0.48857838829183486,0.0,1.0,0.0,1.0,1.0,1.0, 1.0
804,0.0228,0.132,3.45,0.132,3.45,-0.8681922994809433,0.0,-0.4962279024017007,0.0,1.0,0.0,1.0,1.0,1.0, 1.0
805,0.0228,0.132,3.45,0.132,3.45,-0.856338454888388,0.0,-0.5164149985034984,0.0,1.0,0.0,1.0,1.0,1.0, 1.0
806,0.0228,0.132,3.45,0.132,3.45,-0.9238924696810519,0.0,-0.38265219778102216,0.0,1.0,0.0,1.0,1.0,1.0, 1.0
807,0.0228,0.132,3.45,0.132,3.45,-0.9238653074492001,0.0,-0.3827177728977252,0.0,1.0,0.0,1.0,1.0,1.0, 1.0
808,0.0228,0.132,3.45,0.132,3.45,-0.9237082207419325,0.0,-0.3830967540110112,0.0,1.0,0.0,1.0,1.0,1.0, 1.0
809,0.0228,0.132,3.45,0.132,3.45,-0.9233340122726142,0.0,-0.3839977887703987,0.0,1.0,0.0,1.0,1.0,1.0, 1.0
810,0.0228,0.132,3.45,0.132,3.45,-0.9223569400022346,0.0,-0.3863388088578655,0.0,1.0,0.0,1.0,1.0,1.0, 1.0
811,0.0228,0.132,3.45,0.132,3.45,-0.9193158559233708,0.0,-0.3935204658564535,0.0,1.0,0.0,1.0,1.0,1.0, 1.0
812,0.0228,0.132,3.45,0.132,3.45,-0.910879692954168,0.0,-0.41267200651815533,0.0,1.0,0.0,1.0,1.0,1.0, 1.0
813,0.0228,0.132,3.45,0.132,3.45,-0.9609784842558541,0.0,-0.2766231241189375,0.0,1.0,0.0,1.0,1.0,1.0, 1.0
814,0.0228,0.132,3.45,0.132,3.45,-0.9610632861108694,0.0,-0.2763283555659408,0.0,1.0,0.0,1.0,1.0,1.0, 1.0
815,0.0228,0.132,3.45,0.132,3.45,-0.9610594033087805,0.0,-0.2763418594997343,0.0,1.0,0.0,1.0,1.0,1.0, 1.0
816,0.0228,0.132,3.45,0.132,3.45,-0.9609173681932922,0.0,-0.27683535089377004,0.0,1.0,0.0,1.0,1.0,1.0, 1.0
817,0.0228,0.132,3.45,0.132,3.45,-0.9604203621456863,0.0,-0.2785547127153817,0.0,1.0,0.0,1.0,1.0,1.0, 1.0
818,0.0228,0.132,3.45,0.132,3.45,-0.9587459065556364,0.0,-0.2842644660572458,0.0,1.0,0.0,1.0,1.0,1.0, 1.0
819,0.0228,0.132,3.45,0.132,3.45,-0.9539877509545129,0.0,-0.2998455786379886,0.0,1.0,0.0,1.0,1.0,1.0, 1.0
820,0.0228,0.132,3.45,0.132,3.45,-0.9859185949913661,0.0,-0.16722596703338413,0.0,1.0,0.0,1.0,1.0,1.0, 1.0
821,0.0228,0.132,3.45,0.132,3.45,-0.9859931083739655,0.0,-0.16678606128524526,0.0,1.0,0.0,1.0,1.0,1.0, 1.0
822,0.0228,0.132,3.45,0.132,3.45,-0.9860232769624188,0.0,-0.1666076147368215,0.0,1.0,0.0,1.0,1.0,1.0, 1.0
823,0.0228,0.132,3.45,0.132,3.45,-0.9859942270384513,0.0,-0.16677944791504462,0.0,1.0,0.0,1.0,1.0,1.0, 1.0
824,0.0228,0.132,3.45,0.132,3.45,-0.9858240011540861,0.0,-0.1677827129013848,0.0,1.0,0.0,1.0,1.0,1.0, 1.0
825,0.0228,0.132,3.45,0.132,3.45,-0.9851963539719863,0.0,-0.17142970606141886,0.0,1.0,0.0,1.0,1.0,1.0, 1.0
826,0.0228,0.132,3.45,0.132,3.45,-0.9833629462953267,0.0,-0.18165163322517755,0.0,1.0,0.0,1.0,1.0,1.0, 1.0
827,0.0228,0.132,3.45,0.132,3.45,-0.998436208765922,0.0,-0.05590292501410232,0.0,1.0,0.0,1.0,1.0,1.0, 1.0
828,0.0228,0.132,3.45,0.132,3.45,-0.9984500124749668,0.0,-0.05565584056268337,0.0,1.0,0.0,1.0,1.0,1.0, 1.0
829,0.0228,0.132,3.45,0.132,3.45,-0.99845549662393,0.0,-0.05555736910133012,0.0,1.0,0.0,1.0,1.0,1.0, 1.0
830,0.0228,0.132,3.45,0.132,3.45,-0.9984532927189561,0.0,-0.055596962674902106,0.0,1.0,0.0,1.0,1.0,1.0, 1.0
831,0.0228,0.132,3.45,0.132,3.45,-0.9984346585226654,0.0,-0.055930605760426425,0.0,1.0,0.0,1.0,1.0,1.0, 1.0
832,0.0228,0.132,3.45,0.132,3.45,-0.9983636972360174,0.0,-0.057183284631347656,0.0,1.0,0.0,1.0,1.0,1.0, 1.0
833,0.0228,0.132,3.45,0.132,3.45,-0.9981523088553426,0.0,-0.06076156948885277,0.0,1.0,0.0,1.0,1.0,1.0, 1.0
834,0.0228,0.132,3.45,0.132,3.45,-0.7455586864897047,0.0,-0.6664399785425138,0.0,1.0,0.0,1.0,1.0,1.0, 1.0
835,0.0228,0.132,3.45,0.132,3.45,-0.7453766736294828,0.0,-0.6666435437391166,0.0,1.0,0.0,1.0,1.0,1.0, 1.0
836,0.0228,0.132,3.45,0.132,3.45,-0.7451501341289329,0.0,-0.6668967518346699,0.0,1.0,0.0,1.0,1.0,1.0, 1.0
837,0.0228,0.132,3.45,0.132,3.45,-0.7448417818077732,0.0,-0.6672411258858537,0.0,1.0,0.0,1.0,1.0,1.0, 1.0
838,0.0228,0.132,3.45,0.132,3.45,-0.7441409867813982,0.0,-0.6680225982644652,0.0,1.0,0.0,1.0,1.0,1.0, 1.0
839,0.0228,0.132,3.45,0.132,3.45,-0.742000105557779,0.0,-0.6703997638366564,0.0,1.0,0.0,1.0,1.0,1.0, 1.0
840,0.0228,0.132,3.45,0.132,3.45,-0.735670965505232,0.0,-0.6773390808986293,0.0,1.0,0.0,1.0,1.0,1.0, 1.0
841,0.0228,0.132,3.45,0.132,3.45,-0.8153900658699385,0.0,-0.5789119453601017,0.0,1.0,0.0,1.0,1.0,1.0, 1.0
842,0.0228,0.132,3.45,0.132,3.45,-0.815020038533173,0.0,-0.5794327715873389,0.0,1.0,0.0,1.0,1.0,1.0, 1.0
843,0.0228,0.132,3.45,0.132,3.45,-0.8145523947470482,0.0,-0.5800899897531837,0.0,1.0,0.0,1.0,1.0,1.0, 1.0
844,0.0228,0.132,3.45,0.132,3.45,-0.8138952224539265,0.0,-0.5810116753273324,0.0,1.0,0.0,1.0,1.0,1.0, 1.0
845,0.0228,0.132,3.45,0.132,3.45,-0.8124566366743364,0.0,-0.583021623547382,0.0,1.0,0.0,1.0,1.0,1.0, 1.0
846,0.0228,0.132,3.45,0.132,3.45,-0.8080211016698648,0.0,-0.5891535447200653,0.0,1.0,0.0,1.0,1.0,1.0, 1.0
847,0.0228,0.132,3.45,0.132,3.45,-0.7953314842684229,0.0,-0.6061747521395024,0.0,1.0,0.0,1.0,1.0,1.0, 1.0
848,0.0228,0.132,3.45,0.132,3.45,-0.8750905281920076,0.0,-0.48395926219944707,0.0,1.0,0.0,1.0,1.0,1.0, 1.0
849,0.0228,0.132,3.45,0.132,3.45,-0.8747949822010515,0.0,-0.48449328077473075,0.0,1.0,0.0,1.0,1.0,1.0, 1.0
850,0.0228,0.132,3.45,0.132,3.45,-0.8743938007577738,0.0,-0.4852169424045025,0.0,1.0,0.0,1.0,1.0,1.0, 1.0
851,0.0228,0.132,3.45,0.132,3.45,-0.873782923388661,0.0,-0.4863161551854571,0.0,1.0,0.0,1.0,1.0,1.0, 1.0
852,0.0228,0.132,3.45,0.132,3.45,-0.8724381671798068,0.0,-0.4887245077218245,0.0,1.0,0.0,1.0,1.0,1.0, 1.0
853,0.0228,0.132,3.45,0.132,3.45,-0.8682745100737795,0.0,-0.49608404041667986,0.0,1.0,0.0,1.0,1.0,1.0, 1.0
854,0.0228,0.132,3.45,0.132,3.45,-0.8566289896170812,0.0,-0.515932916324999,0.0,1.0,0.0,1.0,1.0,1.0, 1.0
855,0.0228,0.132,3.45,0.132,3.45,-0.9238437601877563,0.0,-0.38276978297946596,0.0,1.0,0.0,1.0,1.0,1.0, 1.0
856,0.0228,0.132,3.45,0.132,3.45,-0.9237414882092226,0.0,-0.3830165309239414,0.0,1.0,0.0,1.0,1.0,1.0, 1.0
857,0.0228,0.132,3.45,0.132,3.45,-0.923550707925213,0.0,-0.3834763224644224,0.0,1.0,0.0,1.0,1.0,1.0, 1.0
858,0.0228,0.132,3.45,0.132,3.45,-0.9231909464539727,0.0,-0.3843416141734045,0.0,1.0,0.0,1.0,1.0,1.0, 1.0
859,0.0228,0.132,3.45,0.132,3.45,-0.9222879811981022,0.0,-0.3865034019740694,0.0,1.0,0.0,1.0,1.0,1.0, 1.0
860,0.0228,0.132,3.45,0.132,3.45,-0.9193931597492773,0.0,-0.39333982484137037,0.0,1.0,0.0,1.0,1.0,1.0, 1.0
861,0.0228,0.132,3.45,0.132,3.45,-0.9111539855094367,0.0,-0.4120660319539444,0.0,1.0,0.0,1.0,1.0,1.0, 1.0
862,0.0228,0.132,3.45,0.132,3.45,-0.960946730067748,0.0,-0.2767334131833425,0.0,1.0,0.0,1.0,1.0,1.0, 1.0
863,0.0228,0.132,3.45,0.132,3.45,-0.9609811815027987,0.0,-0.27661375381113085,0.0,1.0,0.0,1.0,1.0,1.0, 1.0
864,0.0228,0.132,3.45,0.132,3.45,-0.9609547673555233,0.0,-0.2767055024691269,0.0,1.0,0.0,1.0,1.0,1.0, 1.0
865,0.0228,0.132,3.45,0.132,3.45,-0.960823585886627,0.0,-0.277160669655641,0.0,1.0,0.0,1.0,1.0,1.0, 1.0
866,0.0228,0.132,3.45,0.132,3.45,-0.960375421232915,0.0,-0.2787096164320512,0.0,1.0,0.0,1.0,1.0,1.0, 1.0
867,0.0228,0.132,3.45,0.132,3.45,-0.9587929892197766,0.0,-0.2841056208930146,0.0,1.0,0.0,1.0,1.0,1.0, 1.0
868,0.0228,0.132,3.45,0.132,3.45,-0.9541620759073862,0.0,-0.2992903822378981,0.0,1.0,0.0,1.0,1.0,1.0, 1.0
869,0.0228,0.132,3.45,0.132,3.45,-0.9859036412125523,0.0,-0.16731410652969758,0.0,1.0,0.0,1.0,1.0,1.0, 1.0
870,0.0228,0.132,3.45,0.132,3.45,-0.9859550356078791,0.0,-0.16701098095474376,0.0,1.0,0.0,1.0,1.0,1.0, 1.0
871,0.0228,0.132,3.45,0.132,3.45,-0.9859758566377285,0.0,-0.1668880167282766,0.0,1.0,0.0,1.0,1.0,1.0, 1.0
872,0.0228,0.132,3.45,0.132,3.45,-0.9859522259963879,0.0,-0.16702756674503694,0.0,1.0,0.0,1.0,1.0,1.0, 1.0
873,0.0228,0.132,3.45,0.132,3.45,-0.9858028598480943,0.0,-0.16790688346615903,0.0,1.0,0.0,1.0,1.0,1.0, 1.0
874,0.0228,0.132,3.45,0.132,3.45,-0.9852116150788478,0.0,-0.17134197825905986,0.0,1.0,0.0,1.0,1.0,1.0, 1.0
875,0.0228,0.132,3.45,0.132,3.45,-0.9834245326308264,0.0,-0.18131792139730848,0.0,1.0,0.0,1.0,1.0,1.0, 1.0
876,0.0228,0.132,3.45,0.132,3.45,-0.9984338120403125,0.0,-0.0559457145333756,0.0,1.0,0.0,1.0,1.0,1.0, 1.0
877,0.0228,0.132,3.45,0.132,3.45,-0.9984441628971588,0.0,-0.055760681278046016,0.0,1.0,0.0,1.0,1.0,1.0, 1.0
878,0.0228,0.132,3.45,0.132,3.45,-0.9984485036262007,0.0,-0.055682902282482266,0.0,1.0,0.0,1.0,1.0,1.0, 1.0
879,0.0228,0.132,3.45,0.132,3.45,-0.9984470554984805,0.0,-0.055708862548199255,0.0,1.0,0.0,1.0,1.0,1.0, 1.0
880,0.0228,0.132,3.45,0.132,3.45,-0.9984309848630776,0.0,-0.05599614687944963,0.0,1.0,0.0,1.0,1.0,1.0, 1.0
881,0.0228,0.132,3.45,0.132,3.45,-0.9983638589966924,0.0,-0.05718046037968142,0.0,1.0,0.0,1.0,1.0,1.0, 1.0
882,0.0228,0.132,3.45,0.132,3.45,-0.9981556622024358,0.0,-0.06070645775547199,0.0,1.0,0.0,1.0,1.0,1.0, 1.0
883,0.0228,0.132,3.45,0.132,3.45,-0.9981505470510085,0.0,0.060790504371756864,0.0,1.0,-0.0,1.0,1.0,1.0, 1.0
884,0.0228,0.132,3.45,0.132,3.45,-0.9833492563880548,0.0,0.1817257272954481,0.0,1.0,-0.0,1.0,1.0,1.0, 1.0
885,0.0228,0.132,3.45,0.132,3.45,-0.9539576085471119,0.0,0.29994146278078204,0.0,1.0,-0.0,1.0,1.0,1.0, 1.0
886,0.0228,0.132,3.45,0.132,3.45,-0.9108349840190599,0.0,0.4127706771162395,0.0,1.0,-0.0,1.0,1.0,1.0, 1.0
887,0.0228,0.132,3.45,0.132,3.45,-0.8562924940062595,0.0,0.5164912048704604,0.0,1.0,-0.0,1.0,1.0,1.0, 1.0
888,0.0228,0.132,3.45,0.132,3.45,-0.7950945933575736,0.0,0.6064854389130498,0.0,1.0,-0.0,1.0,1.0,1.0, 1.0
889,0.0228,0.132,3.45,0.132,3.45,-0.735592009506149,0.0,0.6774248264942063,0.0,1.0,-0.0,1.0,1.0,1.0, 1.0
890,0.0228,0.132,3.45,0.132,3.45,-0.9983621966901851,0.0,0.057209476662073905,0.0,1.0,-0.0,1.0,1.0,1.0, 1.0
891,0.0228,0.132,3.45,0.132,3.45,-0.9851846708387723,0.0,0.17149683479382355,0.0,1.0,-0.0,1.0,1.0,1.0, 1.0
892,0.0228,0.132,3.45,0.132,3.45,-0.9587189311039616,0.0,0.28435543100647326,0.0,1.0,-0.0,1.0,1.0,1.0, 1.0
893,0.0228,0.132,3.45,0.132,3.45,-0.9192748766625339,0.0,0.3936161850547852,0.0,1.0,-0.0,1.0,1.0,1.0, 1.0
894,0.0228,0.132,3.45,0.132,3.45,-0.8681468524176684,0.0,0.4963074073971643,0.0,1.0,-0.0,1.0,1.0,1.0, 1.0
895,0.0228,0.132,3.45,0.132,3.45,-0.8079289632840089,0.0,0.5892798912968494,0.0,1.0,-0.0,1.0,1.0,1.0, 1.0
896,0.0228,0.132,3.45,0.132,3.45,-0.7419686734643395,0.0,0.6704345513154647,0.0,1.0,-0.0,1.0,1.0,1.0, 1.0
897,0.0228,0.132,3.45,0.132,3.45,-0.9984333965554713,0.0,0.055953128980470314,0.0,1.0,-0.0,1.0,1.0,1.0, 1.0
898,0.0228,0.132,3.45,0.132,3.45,-0.9858141530267464,0.0,0.16784056628884106,0.0,1.0,-0.0,1.0,1.0,1.0, 1.0
899,0.0228,0.132,3.45,0.132,3.45,-0.960397339424227,0.0,0.27863407980156685,0.0,1.0,-0.0,1.0,1.0,1.0, 1.0
900,0.0228,0.132,3.45,0.132,3.45,-0.9223224953998286,0.0,0.3864210326566519,0.0,1.0,-0.0,1.0,1.0,1.0, 1.0
901,0.0228,0.132,3.45,0.132,3.45,-0.8724824767978472,0.0,0.4886454007567184,0.0,1.0,-0.0,1.0,1.0,1.0, 1.0
902,0.0228,0.132,3.45,0.132,3.45,-0.8125012563497147,0.0,0.5829594397813069,0.0,1.0,-0.0,1.0,1.0,1.0, 1.0
903,0.0228,0.132,3.45,0.132,3.45,-0.744164307825312,0.0,0.667996618972637,0.0,1.0,-0.0,1.0,1.0,1.0, 1.0
904,0.0228,0.132,3.45,0.132,3.45,-0.9984523231263153,0.0,0.055614372635715975,0.0,1.0,-0.0,1.0,1.0,1.0, 1.0
905,0.0228,0.132,3.45,0.132,3.45,-0.985986670632956,0.0,0.1668241149658493,0.0,1.0,-0.0,1.0,1.0,1.0, 1.0
906,0.0228,0.132,3.45,0.132,3.45,-0.9608994157901594,0.0,0.2768976575092874,0.0,1.0,-0.0,1.0,1.0,1.0, 1.0
907,0.0228,0.132,3.45,0.132,3.45,-0.9233064213831722,0.0,0.3840641251569845,0.0,1.0,-0.0,1.0,1.0,1.0, 1.0
908,0.0228,0.132,3.45,0.132,3.45,-0.8739219037323189,0.0,0.48606635984902274,0.0,1.0,-0.0,1.0,1.0,1.0, 1.0
909,0.0228,0.132,3.45,0.132,3.45,-0.8140211338987565,0.0,0.580835255099226,0.0,1.0,-0.0,1.0,1.0,1.0, 1.0
910,0.0228,0.132,3.45,0.132,3.45,-0.7448978837367723,0.0,0.6671784939613074,0.0,1.0,-0.0,1.0,1.0,1.0, 1.0
911,0.0228,0.132,3.45,0.132,3.45,-0.9984548395419857,0.0,0.05556917666465439,0.0,1.0,-0.0,1.0,1.0,1.0, 1.0
912,0.0228,0.132,3.45,0.132,3.45,-0.9860180487551167,0.0,0.1666385535497485,0.0,1.0,-0.0,1.0,1.0,1.0, 1.0
913,0.0228,0.132,3.45,0.132,3.45,-0.9610468338097514,0.0,0.2763855698553234,0.0,1.0,-0.0,1.0,1.0,1.0, 1.0
914,0.0228,0.132,3.45,0.132,3.45,-0.9236890979490114,0.0,0.38314285890531935,0.0,1.0,-0.0,1.0,1.0,1.0, 1.0
915,0.0228,0.132,3.45,0.132,3.45,-0.87455687762517,0.0,0.4849229503730604,0.0,1.0,-0.0,1.0,1.0,1.0, 1.0
916,0.0228,0.132,3.45,0.132,3.45,-0.8146972204130359,0.0,0.5798865742981753,0.0,1.0,-0.0,1.0,1.0,1.0, 1.0
917,0.0228,0.132,3.45,0.132,3.45,-0.7452134221047626,0.0,0.6668260309217908,0.0,1.0,-0.0,1.0,1.0,1.0, 1.0
918,0.0228,0.132,3.45,0.132,3.45,-0.9984496238589288,0.0,0.05566281178635989,0.0,1.0,-0.0,1.0,1.0,1.0, 1.0
919,0.0228,0.132,3.45,0.132,3.45,-0.985989824522373,0.0,0.16680547334647008,0.0,1.0,-0.0,1.0,1.0,1.0, 1.0
920,0.0228,0.132,3.45,0.132,3.45,-0.9610557027373079,0.0,0.276354728991742,0.0,1.0,-0.0,1.0,1.0,1.0, 1.0
921,0.0228,0.132,3.45,0.132,3.45,-0.9238542929035019,0.0,0.3827443604859131,0.0,1.0,-0.0,1.0,1.0,1.0, 1.0
922,0.0228,0.132,3.45,0.132,3.45,-0.8749258321678008,0.0,0.48425694440604694,0.0,1.0,-0.0,1.0,1.0,1.0, 1.0
923,0.0228,0.132,3.45,0.132,3.45,-0.8151312583044069,0.0,0.5792762999942896,0.0,1.0,-0.0,1.0,1.0,1.0, 1.0
924,0.0228,0.132,3.45,0.132,3.45,-0.745423739919627,0.0,0.6665909150027747,0.0,1.0,-0.0,1.0,1.0,1.0, 1.0
925,0.0228,0.132,3.45,0.132,3.45,-0.9984360720627754,0.0,0.05590536650319418,0.0,1.0,-0.0,1.0,1.0,1.0, 1.0
926,0.0228,0.132,3.45,0.132,3.45,-0.9859173825287163,0.0,0.16723311522460177,0.0,1.0,-0.0,1.0,1.0,1.0, 1.0
927,0.0228,0.132,3.45,0.132,3.45,-0.9609756943568293,0.0,0.2766328159409322,0.0,1.0,-0.0,1.0,1.0,1.0, 1.0
928,0.0228,0.132,3.45,0.132,3.45,-0.9238884132926252,0.0,0.3826619915586539,0.0,1.0,-0.0,1.0,1.0,1.0, 1.0
929,0.0228,0.132,3.45,0.132,3.45,-0.8751409376379917,0.0,0.48386810110824263,0.0,1.0,-0.0,1.0,1.0,1.0, 1.0
930,0.0228,0.132,3.45,0.132,3.45,-0.8154301275091219,0.0,0.578855514917546,0.0,1.0,-0.0,1.0,1.0,1.0, 1.0
931,0.0228,0.132,3.45,0.132,3.45,-0.745576046868284,0.0,0.6664205566579277,0.0,1.0,-0.0,1.0,1.0,1.0, 1.0
932,0.0228,0.132,3.45,0.132,3.45,-0.9981541806302524,0.0,0.06073081335162115,0.0,1.0,-0.0,1.0,1.0,1.0, 1.0
933,0.0228,0.132,3.45,0.132,3.45,-0.9834130417481639,0.0,0.1813802340929799,0.0,1.0,-0.0,1.0,1.0,1.0, 1.0
934,0.0228,0.132,3.45,0.132,3.45,-0.954136775242745,0.0,0.29937103087869993,0.0,1.0,-0.0,1.0,1.0,1.0, 1.0
935,0.0228,0.132,3.45,0.132,3.45,-0.9111164320308971,0.0,0.41214905954434444,0.0,1.0,-0.0,1.0,1.0,1.0, 1.0
936,0.0228,0.132,3.45,0.132,3.45,-0.8565903459669134,0.0,0.5159970728563135,0.0,1.0,-0.0,1.0,1.0,1.0, 1.0
937,0.0228,0.132,3.45,0.132,3.45,-0.795303589936653,0.0,0.6062113491463785,0.0,1.0,-0.0,1.0,1.0,1.0, 1.0
938,0.0228,0.132,3.45,0.132,3.45,-0.7356614356254868,0.0,0.6773494313376572,0.0,1.0,-0.0,1.0,1.0,1.0, 1.0
939,0.0228,0.132,3.45,0.132,3.45,-0.9983625979455242,0.0,0.057202473927825265,0.0,1.0,-0.0,1.0,1.0,1.0, 1.0
940,0.0228,0.132,3.45,0.132,3.45,-0.985201805098424,0.0,0.17139837581146164,0.0,1.0,-0.0,1.0,1.0,1.0, 1.0
941,0.0228,0.132,3.45,0.132,3.45,-0.9587703401973593,0.0,0.2841820451010933,0.0,1.0,-0.0,1.0,1.0,1.0, 1.0
942,0.0228,0.132,3.45,0.132,3.45,-0.919358747734513,0.0,0.39342024981440404,0.0,1.0,-0.0,1.0,1.0,1.0, 1.0
943,0.0228,0.132,3.45,0.132,3.45,-0.8682363409793536,0.0,0.4961508401713976,0.0,1.0,-0.0,1.0,1.0,1.0, 1.0
944,0.0228,0.132,3.45,0.132,3.45,-0.807992356837476,0.0,0.5891929660919424,0.0,1.0,-0.0,1.0,1.0,1.0, 1.0
945,0.0228,0.132,3.45,0.132,3.45,-0.7419919431800704,0.0,0.6704087978657969,0.0,1.0,-0.0,1.0,1.0,1.0, 1.0
946,0.0228,0.132,3.45,0.132,3.45,-0.9984299236078455,0.0,0.05601506622714753,0.0,1.0,-0.0,1.0,1.0,1.0, 1.0
947,0.0228,0.132,3.45,0.132,3.45,-0.985794586294794,0.0,0.16795545133122622,0.0,1.0,-0.0,1.0,1.0,1.0, 1.0
948,0.0228,0.132,3.45,0.132,3.45,-0.9603560905382328,0.0,0.2787762173610256,0.0,1.0,-0.0,1.0,1.0,1.0, 1.0
949,0.0228,0.132,3.45,0.132,3.45,-0.9222590757983522,0.0,0.3865723698191185,0.0,1.0,-0.0,1.0,1.0,1.0, 1.0
950,0.0228,0.132,3.45,0.132,3.45,-0.8724066930475202,0.0,0.48878068898626725,0.0,1.0,-0.0,1.0,1.0,1.0, 1.0
951,0.0228,0.132,3.45,0.132,3.45,-0.8124313050502027,0.0,0.583056922242095,0.0,1.0,-0.0,1.0,1.0,1.0, 1.0
952,0.0228,0.132,3.45,0.132,3.45,-0.7441315122876877,0.0,0.6680331521866552,0.0,1.0,-0.0,1.0,1.0,1.0, 1.0
953,0.0228,0.132,3.45,0.132,3.45,-0.9984462405114423,0.0,0.0557234673056806,0.0,1.0,-0.0,1.0,1.0,1.0, 1.0
954,0.0228,0.132,3.45,0.132,3.45,-0.9859458826554788,0.0,0.16706500673303418,0.0,1.0,-0.0,1.0,1.0,1.0, 1.0
955,0.0228,0.132,3.45,0.132,3.45,-0.9608085287801291,0.0,0.2772128622978447,0.0,1.0,-0.0,1.0,1.0,1.0, 1.0
956,0.0228,0.132,3.45,0.132,3.45,-0.923167825951752,0.0,0.38439714505640615,0.0,1.0,-0.0,1.0,1.0,1.0, 1.0
957,0.0228,0.132,3.45,0.132,3.45,-0.873756953393769,0.0,0.48636281354153593,0.0,1.0,-0.0,1.0,1.0,1.0, 1.0
958,0.0228,0.132,3.45,0.132,3.45,-0.8138746758815614,0.0,0.5810404563872323,0.0,1.0,-0.0,1.0,1.0,1.0, 1.0
959,0.0228,0.132,3.45,0.132,3.45,-0.7448343237274978,0.0,0.6672494512529786,0.0,1.0,-0.0,1.0,1.0,1.0, 1.0
960,0.0228,0.132,3.45,0.132,3.45,-0.9984479524610517,0.0,0.055692784329152194,0.0,1.0,-0.0,1.0,1.0,1.0, 1.0
961,0.0228,0.132,3.45,0.132,3.45,-0.9859714771421477,0.0,0.1669138887634319,0.0,1.0,-0.0,1.0,1.0,1.0, 1.0
962,0.0228,0.132,3.45,0.132,3.45,-0.9609442486787029,0.0,0.27674202957144634,0.0,1.0,-0.0,1.0,1.0,1.0, 1.0
963,0.0228,0.132,3.45,0.132,3.45,-0.9235347213144756,0.0,0.3835148217821495,0.0,1.0,-0.0,1.0,1.0,1.0, 1.0
964,0.0228,0.132,3.45,0.132,3.45,-0.8743739704209859,0.0,0.48525267629374397,0.0,1.0,-0.0,1.0,1.0,1.0, 1.0
965,0.0228,0.132,3.45,0.132,3.45,-0.8145367427985446,0.0,0.580111967322807,0.0,1.0,-0.0,1.0,1.0,1.0, 1.0
966,0.0228,0.132,3.45,0.132,3.45,-0.7451447920323863,0.0,0.6669027207224543,0.0,1.0,-0.0,1.0,1.0,1.0, 1.0
967,0.0228,0.132,3.45,0.132,3.45,-0.9984438381286038,0.0,0.0557664962412225,0.0,1.0,-0.0,1.0,1.0,1.0, 1.0
968,0.0228,0.132,3.45,0.132,3.45,-0.9859522945135886,0.0,0.16702716229221537,0.0,1.0,-0.0,1.0,1.0,1.0, 1.0
969,0.0228,0.132,3.45,0.132,3.45,-0.9609748573580806,0.0,0.27663572351671556,0.0,1.0,-0.0,1.0,1.0,1.0, 1.0
970,0.0228,0.132,3.45,0.132,3.45,-0.9237323106026815,0.0,0.38303866429987365,0.0,1.0,-0.0,1.0,1.0,1.0, 1.0
971,0.0228,0.132,3.45,0.132,3.45,-0.8747838214625243,0.0,0.48451343191641505,0.0,1.0,-0.0,1.0,1.0,1.0, 1.0
972,0.0228,0.132,3.45,0.132,3.45,-0.8150116841054283,0.0,0.5794445226004243,0.0,1.0,-0.0,1.0,1.0,1.0, 1.0
973,0.0228,0.132,3.45,0.132,3.45,-0.745373461933465,0.0,0.6666471347312021,0.0,1.0,-0.0,1.0,1.0,1.0, 1.0
974,0.0228,0.132,3.45,0.132,3.45,-0.9984336984837292,0.0,0.055947741081313083,0.0,1.0,-0.0,1.0,1.0,1.0, 1.0
975,0.0228,0.132,3.45,0.132,3.45,-0.9859026345552913,0.0,0.16732003818113358,0.0,1.0,-0.0,1.0,1.0,1.0, 1.0
976,0.0228,0.132,3.45,0.132,3.45,-0.9609444145867344,0.0,0.2767414534806062,0.0,1.0,-0.0,1.0,1.0,1.0, 1.0
977,0.0228,0.132,3.45,0.132,3.45,-0.923840394676292,0.0,0.38277790579440824,0.0,1.0,-0.0,1.0,1.0,1.0, 1.0
978,0.0228,0.132,3.45,0.132,3.45,-0.8750865634329426,0.0,0.48396643116968613,0.0,1.0,-0.0,1.0,1.0,1.0, 1.0
979,0.0228,0.132,3.45,0.132,3.45,-0.8153872812712419,0.0,0.5789158674117445,0.0,1.0,-0.0,1.0,1.0,1.0, 1.0
980,0.0228,0.132,3.45,0.132,3.45,-0.745557614018494,0.0,0.6664411783338801,0.0,1.0,-0.0,1.0,1.0,1.0, 1.0
981,0.0228,0.132,3.45,0.132,3.45,-0.07008719566474662,0.0,0.9975408688388919,0.0,1.0,-0.0,1.0,1.0,1.0, 1.0
982,0.0228,0.132,3.45,0.132,3.45,-0.20742925725708367,0.0,0.978250020819716,0.0,1.0,-0.0,1.0,1.0,1.0, 1.0
983,0.0228,0.132,3.45,0.132,3.45,-0.33725969029331976,0.0,0.9414116534775071,0.0,1.0,-0.0,1.0,1.0,1.0, 1.0
984,0.0228,0.132,3.45,0.132,3.45,-0.4561317691871235,0.0,0.8899122479987702,0.0,1.0,-0.0,1.0,1.0,1.0, 1.0
985,0.0228,0.132,3.45,0.132,3.45,-0.5605405982109919,0.0,0.8281269454360626,0.0,1.0,-0.0,1.0,1.0,1.0, 1.0
986,0.0228,0.132,3.45,0.132,3.45,-0.6462594113452282,0.0,0.7631177977532164,0.0,1.0,-0.0,1.0,1.0,1.0, 1.0
987,0.0228,0.132,3.45,0.132,3.45,-0.7074239433102933,0.0,0.7067894767406452,0.0,1.0,-0.0,1.0,1.0,1.0, 1.0
988,0.0228,0.132,3.45,0.132,3.45,-0.08548976328218477,0.0,0.9963390489055199,0.0,1.0,-0.0,1.0,1.0,1.0, 1.0
989,0.0228,0.132,3.45,0.132,3.45,-0.24910191657081507,0.0,0.9684772765329844,0.0,1.0,-0.0,1.0,1.0,1.0, 1.0
990,0.0228,0.132,3.45,0.132,3.45,-0.3963809994321027,0.0,0.918086108864091,0.0,1.0,-0.0,1.0,1.0,1.0, 1.0
991,0.0228,0.132,3.45,0.132,3.45,-0.5231774525614376,0.0,0.8522237694005752,0.0,1.0,-0.0,1.0,1.0,1.0, 1.0
992,0.0228,0.132,3.45,0.132,3.45,-0.6276979971785184,0.0,0.7784569508573205,0.0,1.0,-0.0,1.0,1.0,1.0, 1.0
993,0.0228,0.132,3.45,0.132,3.45,-0.7086243029959304,0.0,0.7055859956118261,0.0,1.0,-0.0,1.0,1.0,1.0, 1.0
994,0.0228,0.132,3.45,0.132,3.45,-0.7643760011853655,0.0,0.6447707567902489,0.0,1.0,-0.0,1.0,1.0,1.0, 1.0
995,0.0228,0.132,3.45,0.132,3.45,-0.10930577334215179,0.0,0.9940081729614069,0.0,1.0,-0.0,1.0,1.0,1.0, 1.0
996,0.0228,0.132,3.45,0.132,3.45,-0.31113279744155364,0.0,0.9503664463543489,0.0,1.0,-0.0,1.0,1.0,1.0, 1.0
997,0.0228,0.132,3.45,0.132,3.45,-0.479700170619956,0.0,0.877432473930151,0.0,1.0,-0.0,1.0,1.0,1.0, 1.0
998,0.0228,0.132,3.45,0.132,3.45,-0.6120629890551359,0.0,0.7908090145091243,0.0,1.0,-0.0,1.0,1.0,1.0, 1.0
999,0.0228,0.132,3.45,0.132,3.45,-0.711640705311169,0.0,0.7025435976110109,0.0,1.0,-0.0,1.0,1.0,1.0, 1.0
1000,0.0228,0.132,3.45,0.132,3.45,-0.7831233540863031,0.0,0.621866394239646,0.0,1.0,-0.0,1.0,1.0,1.0, 1.0
1001,0.0228,0.132,3.45,0.132,3.45,-0.8300433714082625,0.0,0.5576988448806447,0.0,1.0,-0.0,1.0,1.0,1.0, 1.0
1002,0.0228,0.132,3.45,0.132,3.45,-0.1448437951114343,0.0,0.9894545340831569,0.0,1.0,-0.0,1.0,1.0,1.0, 1.0
1003,0.0228,0.132,3.45,0.132,3.45,-0.39872544621743883,0.0,0.9170703454690399,0.0,1.0,-0.0,1.0,1.0,1.0, 1.0
1004,0.0228,0.132,3.45,0.132,3.45,-0.586887514308747,0.0,0.8096684787914744,0.0,1.0,-0.0,1.0,1.0,1.0, 1.0
1005,0.0228,0.132,3.45,0.132,3.45,-0.7157066485222742,0.0,0.6984010261024922,0.0,1.0,-0.0,1.0,1.0,1.0, 1.0
1006,0.0228,0.132,3.45,0.132,3.45,-0.8015309144859555,0.0,0.5979533369112577,0.0,1.0,-0.0,1.0,1.0,1.0, 1.0
1007,0.0228,0.132,3.45,0.132,3.45,-0.857559272534293,0.0,0.5143851612269295,0.0,1.0,-0.0,1.0,1.0,1.0, 1.0
1008,0.0228,0.132,3.45,0.132,3.45,-0.8920695964679959,0.0,0.45189803612919904,0.0,1.0,-0.0,1.0,1.0,1.0, 1.0
1009,0.0228,0.132,3.45,0.132,3.45,-0.20347730667501981,0.0,0.9790796625751552,0.0,1.0,-0.0,1.0,1.0,1.0, 1.0
1010,0.0228,0.132,3.45,0.132,3.45,-0.5254053644326399,0.0,0.8508520453201044,0.0,1.0,-0.0,1.0,1.0,1.0, 1.0
1011,0.0228,0.132,3.45,0.132,3.45,-0.7178713272344452,0.0,0.6961758093575617,0.0,1.0,-0.0,1.0,1.0,1.0, 1.0
1012,0.0228,0.132,3.45,0.132,3.45,-0.8251842211968204,0.0,0.5648637013367004,0.0,1.0,-0.0,1.0,1.0,1.0, 1.0
1013,0.0228,0.132,3.45,0.132,3.45,-0.8864295037680797,0.0,0.4628636244613262,0.0,1.0,-0.0,1.0,1.0,1.0, 1.0
1014,0.0228,0.132,3.45,0.132,3.45,-0.9224222294418567,0.0,0.3861828979013886,0.0,1.0,-0.0,1.0,1.0,1.0, 1.0
1015,0.0228,0.132,3.45,0.132,3.45,-0.9431321527360287,0.0,0.33241802369231427,0.0,1.0,-0.0,1.0,1.0,1.0, 1.0
1016,0.0228,0.132,3.45,0.132,3.45,-0.32545080885631883,0.0,0.9455589727852874,0.0,1.0,-0.0,1.0,1.0,1.0, 1.0
1017,0.0228,0.132,3.45,0.132,3.45,-0.7157734631197873,0.0,0.6983325493584747,0.0,1.0,-0.0,1.0,1.0,1.0, 1.0
1018,0.0228,0.132,3.45,0.132,3.45,-0.8641487386589043,0.0,0.5032364826542536,0.0,1.0,-0.0,1.0,1.0,1.0, 1.0
1019,0.0228,0.132,3.45,0.132,3.45,-0.9254304784886476,0.0,0.37891744415409645,0.0,1.0,-0.0,1.0,1.0,1.0, 1.0
1020,0.0228,0.132,3.45,0.132,3.45,-0.9549081589602683,0.0,0.2969013438014571,0.0,1.0,-0.0,1.0,1.0,1.0, 1.0
1021,0.0228,0.132,3.45,0.132,3.45,-0.9705901232435535,0.0,0.2407380581920181,0.0,1.0,-0.0,1.0,1.0,1.0, 1.0
1022,0.0228,0.132,3.45,0.132,3.45,-0.9790765431457708,0.0,0.2034923159771091,0.0,1.0,-0.0,1.0,1.0,1.0, 1.0
1023,0.0228,0.132,3.45,0.132,3.45,-0.7101218256286568,0.0,0.7040788256763753,0.0,1.0,-0.0,1.0,1.0,1.0, 1.0
1024,0.0228,0.132,3.45,0.132,3.45,-0.9490998495993829,0.0,0.3149753569573798,0.0,1.0,-0.0,1.0,1.0,1.0, 1.0
1025,0.0228,0.132,3.45,0.132,3.45,-0.981062437215305,0.0,0.19369175068950578,0.0,1.0,-0.0,1.0,1.0,1.0, 1.0
1026,0.0228,0.132,3.45,0.132,3.45,-0.990577814505142,0.0,0.13695106209962873,0.0,1.0,-0.0,1.0,1.0,1.0, 1.0
1027,0.0228,0.132,3.45,0.132,3.45,-0.994608026636302,0.0,0.10370570548740943,0.0,1.0,-0.0,1.0,1.0,1.0, 1.0
1028,0.0228,0.132,3.45,0.132,3.45,-0.9966099072623207,0.0,0.0822720654085486,0.0,1.0,-0.0,1.0,1.0,1.0, 1.0
1029,0.0228,0.132,3.45,0.132,3.45,-0.9976460742923797,0.0,0.068573394614847,0.0,1.0,-0.0,1.0,1.0,1.0, 1.0
1030,0.0228,0.132,3.45,0.132,3.45,-0.0699589167898039,0.0,0.9975498734206713,0.0,1.0,-0.0,1.0,1.0,1.0, 1.0
1031,0.0228,0.132,3.45,0.132,3.45,-0.206832120869502,0.0,0.9783764478852829,0.0,1.0,-0.0,1.0,1.0,1.0, 1.0
1032,0.0228,0.132,3.45,0.132,3.45,-0.33644512096303264,0.0,0.9417030745304862,0.0,1.0,-0.0,1.0,1.0,1.0, 1.0
1033,0.0228,0.132,3.45,0.132,3.45,-0.4553870705011618,0.0,0.8902935560928036,0.0,1.0,-0.0,1.0,1.0,1.0, 1.0
1034,0.0228,0.132,3.45,0.132,3.45,-0.5600529949399231,0.0,0.8284567839415781,0.0,1.0,-0.0,1.0,1.0,1.0, 1.0
1035,0.0228,0.132,3.45,0.132,3.45,-0.6460716580252194,0.0,0.7632767602230163,0.0,1.0,-0.0,1.0,1.0,1.0, 1.0
1036,0.0228,0.132,3.45,0.132,3.45,-0.7074418071842205,0.0,0.7067715963788613,0.0,1.0,-0.0,1.0,1.0,1.0, 1.0
1037,0.0228,0.132,3.45,0.132,3.45,-0.08529543785069443,0.0,0.9963557036931431,0.0,1.0,-0.0,1.0,1.0,1.0, 1.0
1038,0.0228,0.132,3.45,0.132,3.45,-0.24821795511712957,0.0,0.968704210147489,0.0,1.0,-0.0,1.0,1.0,1.0, 1.0
1039,0.0228,0.132,3.45,0.132,3.45,-0.39535575316239424,0.0,0.9185280771110897,0.0,1.0,-0.0,1.0,1.0,1.0, 1.0
1040,0.0228,0.132,3.45,0.132,3.45,-0.5225217783707917,0.0,0.8526259385734316,0.0,1.0,-0.0,1.0,1.0,1.0, 1.0
1041,0.0228,0.132,3.45,0.132,3.45,-0.6274830589477373,0.0,0.7786302143723877,0.0,1.0,-0.0,1.0,1.0,1.0, 1.0
1042,0.0228,0.132,3.45,0.132,3.45,-0.7087450311613966,0.0,0.7054647268319169,0.0,1.0,-0.0,1.0,1.0,1.0, 1.0
1043,0.0228,0.132,3.45,0.132,3.45,-0.7646328788209433,0.0,0.6444661051025079,0.0,1.0,-0.0,1.0,1.0,1.0, 1.0
1044,0.0228,0.132,3.45,0.132,3.45,-0.10868143887955019,0.0,0.99407662926108,0.0,1.0,-0.0,1.0,1.0,1.0, 1.0
1045,0.0228,0.132,3.45,0.132,3.45,-0.3097742105730243,0.0,0.9508101484859423,0.0,1.0,-0.0,1.0,1.0,1.0, 1.0
1046,0.0228,0.132,3.45,0.132,3.45,-0.4785279394042961,0.0,0.8780723268669149,0.0,1.0,-0.0,1.0,1.0,1.0, 1.0
1047,0.0228,0.132,3.45,0.132,3.45,-0.6115626668456938,0.0,0.7911959962743638,0.0,1.0,-0.0,1.0,1.0,1.0, 1.0
1048,0.0228,0.132,3.45,0.132,3.45,-0.7117910055057382,0.0,0.7023913186259709,0.0,1.0,-0.0,1.0,1.0,1.0, 1.0
1049,0.0228,0.132,3.45,0.132,3.45,-0.7835715006724684,0.0,0.6213016202569376,0.0,1.0,-0.0,1.0,1.0,1.0, 1.0
1050,0.0228,0.132,3.45,0.132,3.45,-0.8305038587926757,0.0,0.5570128728588555,0.0,1.0,-0.0,1.0,1.0,1.0, 1.0
1051,0.0228,0.132,3.45,0.132,3.45,-0.1437364454109432,0.0,0.9896160034380138,0.0,1.0,-0.0,1.0,1.0,1.0, 1.0
1052,0.0228,0.132,3.45,0.132,3.45,-0.39673530405680335,0.0,0.9179330577525551,0.0,1.0,-0.0,1.0,1.0,1.0, 1.0
1053,0.0228,0.132,3.45,0.132,3.45,-0.5855357052314167,0.0,0.8106466171514857,0.0,1.0,-0.0,1.0,1.0,1.0, 1.0
1054,0.0228,0.132,3.45,0.132,3.45,-0.7153552471236791,0.0,0.6987609536977721,0.0,1.0,-0.0,1.0,1.0,1.0, 1.0
1055,0.0228,0.132,3.45,0.132,3.45,-0.8018306347858563,0.0,0.5975513644189182,0.0,1.0,-0.0,1.0,1.0,1.0, 1.0
1056,0.0228,0.132,3.45,0.132,3.45,-0.858103896364582,0.0,0.5134760978311678,0.0,1.0,-0.0,1.0,1.0,1.0, 1.0
1057,0.0228,0.132,3.45,0.132,3.45,-0.8925447602886162,0.0,0.4509588128436304,0.0,1.0,-0.0,1.0,1.0,1.0, 1.0
1058,0.0228,0.132,3.45,0.132,3.45,-0.2017615187876503,0.0,0.979434678544976,0.0,1.0,-0.0,1.0,1.0,1.0, 1.0
1059,0.0228,0.132,3.45,0.132,3.45,-0.5230907594737755,0.0,0.852276983939581,0.0,1.0,-0.0,1.0,1.0,1.0, 1.0
1060,0.0228,0.132,3.45,0.132,3.45,-0.7166394148810109,0.0,0.6974438680202173,0.0,1.0,-0.0,1.0,1.0,1.0, 1.0
1061,0.0228,0.132,3.45,0.132,3.45,-0.8249086768513733,0.0,0.5652660213167927,0.0,1.0,-0.0,1.0,1.0,1.0, 1.0
1062,0.0228,0.132,3.45,0.132,3.45,-0.8866500204193678,0.0,0.4624410679106419,0.0,1.0,-0.0,1.0,1.0,1.0, 1.0
1063,0.0228,0.132,3.45,0.132,3.45,-0.9227911015206602,0.0,0.38530063970137235,0.0,1.0,-0.0,1.0,1.0,1.0, 1.0
1064,0.0228,0.132,3.45,0.132,3.45,-0.9434438448613107,0.0,0.3315323688470058,0.0,1.0,-0.0,1.0,1.0,1.0, 1.0
1065,0.0228,0.132,3.45,0.132,3.45,-0.3232440054951862,0.0,0.9463156518368636,0.0,1.0,-0.0,1.0,1.0,1.0, 1.0
1066,0.0228,0.132,3.45,0.132,3.45,-0.7142207927486132,0.0,0.6999204663428141,0.0,1.0,-0.0,1.0,1.0,1.0, 1.0
1067,0.0228,0.132,3.45,0.132,3.45,-0.8635806821682406,0.0,0.5042106755968544,0.0,1.0,-0.0,1.0,1.0,1.0, 1.0
1068,0.0228,0.132,3.45,0.132,3.45,-0.9252988720335766,0.0,0.3792387076939678,0.0,1.0,-0.0,1.0,1.0,1.0, 1.0
1069,0.0228,0.132,3.45,0.132,3.45,-0.9549742083183471,0.0,0.2966888293258552,0.0,1.0,-0.0,1.0,1.0,1.0, 1.0
1070,0.0228,0.132,3.45,0.132,3.45,-0.9707069749795506,0.0,0.24026645360110166,0.0,1.0,-0.0,1.0,1.0,1.0, 1.0
1071,0.0228,0.132,3.45,0.132,3.45,-0.9791832303981408,0.0,0.2029783271855924,0.0,1.0,-0.0,1.0,1.0,1.0, 1.0
1072,0.0228,0.132,3.45,0.132,3.45,-0.7096275360660691,0.0,0.7045770078967946,0.0,1.0,-0.0,1.0,1.0,1.0, 1.0
1073,0.0228,0.132,3.45,0.132,3.45,-0.9490588824659342,0.0,0.31509877437481704,0.0,1.0,-0.0,1.0,1.0,1.0, 1.0
1074,0.0228,0.132,3.45,0.132,3.45,-0.9810551357829673,0.0,0.193728729293989,0.0,1.0,-0.0,1.0,1.0,1.0, 1.0
1075,0.0228,0.132,3.45,0.132,3.45,-0.9905800163381463,0.0,0.13693513512432764,0.0,1.0,-0.0,1.0,1.0,1.0, 1.0
1076,0.0228,0.132,3.45,0.132,3.45,-0.9946047817123871,0.0,0.10373682178886612,0.0,1.0,-0.0,1.0,1.0,1.0, 1.0
1077,0.0228,0.132,3.45,0.132,3.45,-0.996609559895478,0.0,0.08227627315904479,0.0,1.0,-0.0,1.0,1.0,1.0, 1.0
1078,0.0228,0.132,3.45,0.132,3.45,-0.9976497264346285,0.0,0.06852024040318956,0.0,1.0,-0.0,1.0,1.0,1.0, 1.0
1079,0.0228,0.132,3.45,0.132,3.45,-0.6664205566579277,0.0,0.745576046868284,0.0,1.0,-0.0,1.0,1.0,1.0, 1.0
1080,0.0228,0.132,3.45,0.132,3.45,-0.6665943182898091,0.0,0.7454206965356843,0.0,1.0,-0.0,1.0,1.0,1.0, 1.0
1081,0.0228,0.132,3.45,0.132,3.45,-0.6668294344890783,0.0,0.7452103765373749,0.0,1.0,-0.0,1.0,1.0,1.0, 1.0
1082,0.0228,0.132,3.45,0.132,3.45,-0.667184958382605,0.0,0.7448920937343889,0.0,1.0,-0.0,1.0,1.0,1.0, 1.0
1083,0.0228,0.132,3.45,0.132,3.45,-0.6680225666119266,0.0,0.7441410151961885,0.0,1.0,-0.0,1.0,1.0,1.0, 1.0
1084,0.0228,0.132,3.45,0.132,3.45,-0.6705225227515158,0.0,0.741889173989581,0.0,1.0,-0.0,1.0,1.0,1.0, 1.0
1085,0.0228,0.132,3.45,0.132,3.45,-0.677687965594172,0.0,0.7353495912073608,0.0,1.0,-0.0,1.0,1.0,1.0, 1.0
1086,0.0228,0.132,3.45,0.132,3.45,-0.5788555149175462,0.0,0.8154301275091217,0.0,1.0,-0.0,1.0,1.0,1.0, 1.0
1087,0.0228,0.132,3.45,0.132,3.45,-0.5792832616374833,0.0,0.815126310939991,0.0,1.0,-0.0,1.0,1.0,1.0, 1.0
1088,0.0228,0.132,3.45,0.132,3.45,-0.5798935390899754,0.0,0.8146922629568193,0.0,1.0,-0.0,1.0,1.0,1.0, 1.0
1089,0.0228,0.132,3.45,0.132,3.45,-0.5808492190099335,0.0,0.8140111699329134,0.0,1.0,-0.0,1.0,1.0,1.0, 1.0
1090,0.0228,0.132,3.45,0.132,3.45,-0.5830063728675332,0.0,0.8124675803968076,0.0,1.0,-0.0,1.0,1.0,1.0, 1.0
1091,0.0228,0.132,3.45,0.132,3.45,-0.5894446538019742,0.0,0.8078087645626723,0.0,1.0,-0.0,1.0,1.0,1.0, 1.0
1092,0.0228,0.132,3.45,0.132,3.45,-0.6070457296779194,0.0,0.7946669000781412,0.0,1.0,-0.0,1.0,1.0,1.0, 1.0
1093,0.0228,0.132,3.45,0.132,3.45,-0.4838681011082428,0.0,0.8751409376379917,0.0,1.0,-0.0,1.0,1.0,1.0, 1.0
1094,0.0228,0.132,3.45,0.132,3.45,-0.48425953945851136,0.0,0.8749243958442525,0.0,1.0,-0.0,1.0,1.0,1.0, 1.0
1095,0.0228,0.132,3.45,0.132,3.45,-0.4849269581028808,0.0,0.8745546554133062,0.0,1.0,-0.0,1.0,1.0,1.0, 1.0
1096,0.0228,0.132,3.45,0.132,3.45,-0.486081195543657,0.0,0.8739136521069167,0.0,1.0,-0.0,1.0,1.0,1.0, 1.0
1097,0.0228,0.132,3.45,0.132,3.45,-0.4887135350107778,0.0,0.8724443138087777,0.0,1.0,-0.0,1.0,1.0,1.0, 1.0
1098,0.0228,0.132,3.45,0.132,3.45,-0.4966003066973434,0.0,0.8679793404154874,0.0,1.0,-0.0,1.0,1.0,1.0, 1.0
1099,0.0228,0.132,3.45,0.132,3.45,-0.5175369515203854,0.0,0.8556608579402158,0.0,1.0,-0.0,1.0,1.0,1.0, 1.0
1100,0.0228,0.132,3.45,0.132,3.45,-0.3826619915586539,0.0,0.9238884132926253,0.0,1.0,-0.0,1.0,1.0,1.0, 1.0
1101,0.0228,0.132,3.45,0.132,3.45,-0.38274488324251416,0.0,0.9238540763300631,0.0,1.0,-0.0,1.0,1.0,1.0, 1.0
1102,0.0228,0.132,3.45,0.132,3.45,-0.383147046116652,0.0,0.9236873610979442,0.0,1.0,-0.0,1.0,1.0,1.0, 1.0
1103,0.0228,0.132,3.45,0.132,3.45,-0.3840825070953547,0.0,0.9232987749062309,0.0,1.0,-0.0,1.0,1.0,1.0, 1.0
1104,0.0228,0.132,3.45,0.132,3.45,-0.38651606226683505,0.0,0.9222826755446184,0.0,1.0,-0.0,1.0,1.0,1.0, 1.0
1105,0.0228,0.132,3.45,0.132,3.45,-0.3940482223772764,0.0,0.9190897662586112,0.0,1.0,-0.0,1.0,1.0,1.0, 1.0
1106,0.0228,0.132,3.45,0.132,3.45,-0.4143230148819974,0.0,0.9101299024529916,0.0,1.0,-0.0,1.0,1.0,1.0, 1.0
1107,0.0228,0.132,3.45,0.132,3.45,-0.27663281594093225,0.0,0.9609756943568293,0.0,1.0,-0.0,1.0,1.0,1.0, 1.0
1108,0.0228,0.132,3.45,0.132,3.45,-0.2763558603061498,0.0,0.9610553774234073,0.0,1.0,-0.0,1.0,1.0,1.0, 1.0
1109,0.0228,0.132,3.45,0.132,3.45,-0.2763906706966855,0.0,0.9610453668541545,0.0,1.0,-0.0,1.0,1.0,1.0, 1.0
1110,0.0228,0.132,3.45,0.132,3.45,-0.276918154475003,0.0,0.9608935090436185,0.0,1.0,-0.0,1.0,1.0,1.0, 1.0
1111,0.0228,0.132,3.45,0.132,3.45,-0.27873980908436524,0.0,0.9603666585380876,0.0,1.0,-0.0,1.0,1.0,1.0, 1.0
1112,0.0228,0.132,3.45,0.132,3.45,-0.2848482386132066,0.0,0.9585726268566996,0.0,1.0,-0.0,1.0,1.0,1.0, 1.0
1113,0.0228,0.132,3.45,0.132,3.45,-0.3017168134737937,0.0,0.9533975899210256,0.0,1.0,-0.0,1.0,1.0,1.0, 1.0
1114,0.0228,0.132,3.45,0.132,3.45,-0.16723311522460177,0.0,0.9859173825287163,0.0,1.0,-0.0,1.0,1.0,1.0, 1.0
1115,0.0228,0.132,3.45,0.132,3.45,-0.16680666364739333,0.0,0.9859896231516969,0.0,1.0,-0.0,1.0,1.0,1.0, 1.0
1116,0.0228,0.132,3.45,0.132,3.45,-0.16664373766791332,0.0,0.9860171726172257,0.0,1.0,-0.0,1.0,1.0,1.0, 1.0
1117,0.0228,0.132,3.45,0.132,3.45,-0.1668419244507905,0.0,0.9859836571898931,0.0,1.0,-0.0,1.0,1.0,1.0, 1.0
1118,0.0228,0.132,3.45,0.132,3.45,-0.167926488658562,0.0,0.9857995203928666,0.0,1.0,-0.0,1.0,1.0,1.0, 1.0
1119,0.0228,0.132,3.45,0.132,3.45,-0.1718974236269966,0.0,0.9851148540908319,0.0,1.0,-0.0,1.0,1.0,1.0, 1.0
1120,0.0228,0.132,3.45,0.132,3.45,-0.183166763156605,0.0,0.9830818566501633,0.0,1.0,-0.0,1.0,1.0,1.0, 1.0
1121,0.0228,0.132,3.45,0.132,3.45,-0.05590536650319418,0.0,0.9984360720627754,0.0,1.0,-0.0,1.0,1.0,1.0, 1.0
1122,0.0228,0.132,3.45,0.132,3.45,-0.05566342102140244,0.0,0.9984495898943492,0.0,1.0,-0.0,1.0,1.0,1.0, 1.0
1123,0.0228,0.132,3.45,0.132,3.45,-0.055571349085563757,0.0,0.9984547186331538,0.0,1.0,-0.0,1.0,1.0,1.0, 1.0
1124,0.0228,0.132,3.45,0.132,3.45,-0.055621475048229146,0.0,0.9984519274924853,0.0,1.0,-0.0,1.0,1.0,1.0, 1.0
1125,0.0228,0.132,3.45,0.132,3.45,-0.055986344095178095,0.0,0.9984315345955657,0.0,1.0,-0.0,1.0,1.0,1.0, 1.0
1126,0.0228,0.132,3.45,0.132,3.45,-0.057363247580428656,0.0,0.9983533732236428,0.0,1.0,-0.0,1.0,1.0,1.0, 1.0
1127,0.0228,0.132,3.45,0.132,3.45,-0.0613439275875925,0.0,0.9981166878417214,0.0,1.0,-0.0,1.0,1.0,1.0, 1.0
1128,0.0228,0.132,3.45,0.132,3.45,-0.6664411783338803,0.0,0.7455576140184937,0.0,1.0,-0.0,1.0,1.0,1.0, 1.0
1129,0.0228,0.132,3.45,0.132,3.45,-0.6666499677304654,0.0,0.7453709281458256,0.0,1.0,-0.0,1.0,1.0,1.0, 1.0
1130,0.0228,0.132,3.45,0.132,3.45,-0.6669055625465397,0.0,0.7451422485971947,0.0,1.0,-0.0,1.0,1.0,1.0, 1.0
1131,0.0228,0.132,3.45,0.132,3.45,-0.6672548617482166,0.0,0.7448294767753008,0.0,1.0,-0.0,1.0,1.0,1.0, 1.0
1132,0.0228,0.132,3.45,0.132,3.45,-0.6680549071999665,0.0,0.744111981469217,0.0,1.0,-0.0,1.0,1.0,1.0, 1.0
1133,0.0228,0.132,3.45,0.132,3.45,-0.6704909741419048,0.0,0.7419176865355345,0.0,1.0,-0.0,1.0,1.0,1.0, 1.0
1134,0.0228,0.132,3.45,0.132,3.45,-0.6776116858495006,0.0,0.7354198822442849,0.0,1.0,-0.0,1.0,1.0,1.0, 1.0
