e_no,c,k1,k2,k3,k4,ax,ay,az,bx,by,bz,pvol,m_g,m_c
1,0.0228,0.132,3.45,0.132,3.45,0.019854754943103806,0.0,0.9998028749239268,-0.0,1.0,0.0,1.0,1.0,1.0, 1.0
2,0.0228,0.132,3.45,0.132,3.45,0.05952058797175131,0.0,0.9982270781778547,-0.0,1.0,0.0,1.0,1.0,1.0, 1.0
3,0.0228,0.132,3.45,0.132,3.45,0.09924433114194263,0.0,0.9950630948518734,-0.0,1.0,0.0,1.0,1.0,1.0, 1.0
4,0.0228,0.132,3.45,0.132,3.45,0.13904670365343455,0.0,0.9902858244987223,-0.0,1.0,0.0,1.0,1.0,1.0, 1.0
5,0.0228,0.132,3.45,0.132,3.45,0.1788402588584651,0.0,0.9838781234540371,-0.0,1.0,0.0,1.0,1.0,1.0, 1.0
6,0.0228,0.132,3.45,0.132,3.45,0.21849317521541978,0.0,0.975838476585282,-0.0,1.0,0.0,1.0,1.0,1.0, 1.0
7,0.0228,0.132,3.45,0.132,3.45,0.25784782764953884,0.0,0.966185540036909,-0.0,1.0,0.0,1.0,1.0,1.0, 1.0
8,0.0228,0.132,3.45,0.132,3.45,0.29675042311119004,0.0,0.9549550703479874,-0.0,1.0,0.0,1.0,1.0,1.0, 1.0
9,0.0228,0.132,3.45,0.132,3.45,0.3350493946005508,0.0,0.9422005641994726,-0.0,1.0,0.0,1.0,1.0,1.0, 1.0
10,0.0228,0.132,3.45,0.132,3.45,0.37260076496714983,0.0,0.9279917402358142,-0.0,1.0,0.0,1.0,1.0,1.0, 1.0
11,0.0228,0.132,3.45,0.132,3.45,0.4092656194277789,0.0,0.9124152852481136,-0.0,1.0,0.0,1.0,1.0,1.0, 1.0
12,0.0228,0.132,3.45,0.132,3.45,0.4449135544728704,0.0,0.8955735196209835,-0.0,1.0,0.0,1.0,1.0,1.0, 1.0
13,0.0228,0.132,3.45,0.132,3.45,0.47943379957656734,0.0,0.8775780488501156,-0.0,1.0,0.0,1.0,1.0,1.0, 1.0
14,0.0228,0.132,3.45,0.132,3.45,0.5127164662578777,0.0,0.8585579917676118,-0.0,1.0,0.0,1.0,1.0,1.0, 1.0
15,0.0228,0.132,3.45,0.132,3.45,0.5446580469998227,0.0,0.8386582211117583,-0.0,1.0,0.0,1.0,1.0,1.0, 1.0
16,0.0228,0.132,3.45,0.132,3.45,0.5751526745134449,0.0,0.8180460873325117,-0.0,1.0,0.0,1.0,1.0,1.0, 1.0
17,0.0228,0.132,3.45,0.132,3.45,0.6041016053802233,0.0,0.7969073035033856,-0.0,1.0,0.0,1.0,1.0,1.0, 1.0
18,0.0228,0.132,3.45,0.132,3.45,0.6313821948289354,0.0,0.7754718073876034,-0.0,1.0,0.0,1.0,1.0,1.0, 1.0
19,0.0228,0.132,3.45,0.132,3.45,0.6567636808780007,0.0,0.7540964576760586,-0.0,1.0,0.0,1.0,1.0,1.0, 1.0
20,0.0228,0.132,3.45,0.132,3.45,0.6796511465543903,0.0,0.7335354926568329,-0.0,1.0,0.0,1.0,1.0,1.0, 1.0
21,0.0228,0.132,3.45,0.132,3.45,0.6987522922547382,0.0,0.7153637075423583,-0.0,1.0,0.0,1.0,1.0,1.0, 1.0
22,0.0228,0.132,3.45,0.132,3.45,0.01933256422751318,0.0,0.9998131085159813,-0.0,1.0,0.0,1.0,1.0,1.0, 1.0
23,0.0228,0.132,3.45,0.132,3.45,0.05797547228537263,0.0,0.9983180077576923,-0.0,1.0,0.0,1.0,1.0,1.0, 1.0
24,0.0228,0.132,3.45,0.132,3.45,0.09671137527434889,0.0,0.9953124684703513,-0.0,1.0,0.0,1.0,1.0,1.0, 1.0
25,0.0228,0.132,3.45,0.132,3.45,0.13557219639795526,0.0,0.9907674699766006,-0.0,1.0,0.0,1.0,1.0,1.0, 1.0
26,0.0228,0.132,3.45,0.132,3.45,0.174483313781862,0.0,0.9846601308125056,-0.0,1.0,0.0,1.0,1.0,1.0, 1.0
27,0.0228,0.132,3.45,0.132,3.45,0.21332459912307827,0.0,0.9769813792539641,-0.0,1.0,0.0,1.0,1.0,1.0, 1.0
28,0.0228,0.132,3.45,0.132,3.45,0.25195590644126725,0.0,0.9677387153614139,-0.0,1.0,0.0,1.0,1.0,1.0, 1.0
29,0.0228,0.132,3.45,0.132,3.45,0.29023480660202894,0.0,0.9569554624101808,-0.0,1.0,0.0,1.0,1.0,1.0, 1.0
30,0.0228,0.132,3.45,0.132,3.45,0.32801535312028335,0.0,0.9446723919525625,-0.0,1.0,0.0,1.0,1.0,1.0, 1.0
31,0.0228,0.132,3.45,0.132,3.45,0.3651562323947487,0.0,0.930946252983099,-0.0,1.0,0.0,1.0,1.0,1.0, 1.0
32,0.0228,0.132,3.45,0.132,3.45,0.40151839971684294,0.0,0.9158509565910958,-0.0,1.0,0.0,1.0,1.0,1.0, 1.0
33,0.0228,0.132,3.45,0.132,3.45,0.4369733085206267,0.0,0.8994744730344142,-0.0,1.0,0.0,1.0,1.0,1.0, 1.0
34,0.0228,0.132,3.45,0.132,3.45,0.47140327653724795,0.0,0.8819177687686914,-0.0,1.0,0.0,1.0,1.0,1.0, 1.0
35,0.0228,0.132,3.45,0.132,3.45,0.504686379133639,0.0,0.8633027619074185,-0.0,1.0,0.0,1.0,1.0,1.0, 1.0
36,0.0228,0.132,3.45,0.132,3.45,0.5367188098248772,0.0,0.8437611742549944,-0.0,1.0,0.0,1.0,1.0,1.0, 1.0
37,0.0228,0.132,3.45,0.132,3.45,0.5673928647223639,0.0,0.8234472278550393,-0.0,1.0,0.0,1.0,1.0,1.0, 1.0
38,0.0228,0.132,3.45,0.132,3.45,0.596625995097978,0.0,0.8025194215552341,-0.0,1.0,0.0,1.0,1.0,1.0, 1.0
39,0.0228,0.132,3.45,0.132,3.45,0.6243119973938455,0.0,0.7811750955516357,-0.0,1.0,0.0,1.0,1.0,1.0, 1.0
40,0.0228,0.132,3.45,0.132,3.45,0.6503215526381041,0.0,0.7596590539013969,-0.0,1.0,0.0,1.0,1.0,1.0, 1.0
41,0.0228,0.132,3.45,0.132,3.45,0.6744887866410484,0.0,0.7382850917467361,-0.0,1.0,0.0,1.0,1.0,1.0, 1.0
42,0.0228,0.132,3.45,0.132,3.45,0.6966305124507458,0.0,0.7174300865747208,-0.0,1.0,0.0,1.0,1.0,1.0, 1.0
43,0.0228,0.132,3.45,0.132,3.45,0.019049677837308106,0.0,0.9998185384229953,-0.0,1.0,0.0,1.0,1.0,1.0, 1.0
44,0.0228,0.132,3.45,0.132,3.45,0.057142818777677656,0.0,0.9983660141762347,-0.0,1.0,0.0,1.0,1.0,1.0, 1.0
45,0.0228,0.132,3.45,0.132,3.45,0.09534629389437842,0.0,0.9954441643008447,-0.0,1.0,0.0,1.0,1.0,1.0, 1.0
46,0.0228,0.132,3.45,0.132,3.45,0.13369557390816791,0.0,0.9910224485436068,-0.0,1.0,0.0,1.0,1.0,1.0, 1.0
47,0.0228,0.132,3.45,0.132,3.45,0.17212274896097465,0.0,0.9850755094357577,-0.0,1.0,0.0,1.0,1.0,1.0, 1.0
48,0.0228,0.132,3.45,0.132,3.45,0.21051474702618758,0.0,0.9775906818727867,-0.0,1.0,0.0,1.0,1.0,1.0, 1.0
49,0.0228,0.132,3.45,0.132,3.45,0.24874540435403952,0.0,0.9685689050412186,-0.0,1.0,0.0,1.0,1.0,1.0, 1.0
50,0.0228,0.132,3.45,0.132,3.45,0.28667134554282875,0.0,0.9580289868499096,-0.0,1.0,0.0,1.0,1.0,1.0, 1.0
51,0.0228,0.132,3.45,0.132,3.45,0.3241554123026249,0.0,0.9460038417865517,-0.0,1.0,0.0,1.0,1.0,1.0, 1.0
52,0.0228,0.132,3.45,0.132,3.45,0.3610666236211699,0.0,0.9325400223619406,-0.0,1.0,0.0,1.0,1.0,1.0, 1.0
53,0.0228,0.132,3.45,0.132,3.45,0.3972632662825068,0.0,0.9177046895720615,-0.0,1.0,0.0,1.0,1.0,1.0, 1.0
54,0.0228,0.132,3.45,0.132,3.45,0.4326168233650347,0.0,0.9015778857877708,-0.0,1.0,0.0,1.0,1.0,1.0, 1.0
55,0.0228,0.132,3.45,0.132,3.45,0.46700616805109824,0.0,0.8842540579506716,-0.0,1.0,0.0,1.0,1.0,1.0, 1.0
56,0.0228,0.132,3.45,0.132,3.45,0.5003137807374414,0.0,0.8658441665820746,-0.0,1.0,0.0,1.0,1.0,1.0, 1.0
57,0.0228,0.132,3.45,0.132,3.45,0.5324367651691628,0.0,0.8464697815611598,-0.0,1.0,0.0,1.0,1.0,1.0, 1.0
58,0.0228,0.132,3.45,0.132,3.45,0.5632782286602264,0.0,0.8262672915693794,-0.0,1.0,0.0,1.0,1.0,1.0, 1.0
59,0.0228,0.132,3.45,0.132,3.45,0.5927570377440796,0.0,0.8053813346513959,-0.0,1.0,0.0,1.0,1.0,1.0, 1.0
60,0.0228,0.132,3.45,0.132,3.45,0.6207770270830235,0.0,0.7839871699498425,-0.0,1.0,0.0,1.0,1.0,1.0, 1.0
61,0.0228,0.132,3.45,0.132,3.45,0.6472642031497385,0.0,0.762265735371159,-0.0,1.0,0.0,1.0,1.0,1.0, 1.0
62,0.0228,0.132,3.45,0.132,3.45,0.6722357056655237,0.0,0.7403371907640296,-0.0,1.0,0.0,1.0,1.0,1.0, 1.0
63,0.0228,0.132,3.45,0.132,3.45,0.6957714039274452,0.0,0.7182632898017495,-0.0,1.0,0.0,1.0,1.0,1.0, 1.0
64,0.0228,0.132,3.45,0.132,3.45,0.018875802621688125,0.0,0.9998218361665179,-0.0,1.0,0.0,1.0,1.0,1.0, 1.0
65,0.0228,0.132,3.45,0.132,3.45,0.056634206491964774,0.0,0.9983949953074813,-0.0,1.0,0.0,1.0,1.0,1.0, 1.0
66,0.0228,0.132,3.45,0.132,3.45,0.09451332937296966,0.0,0.9955235961898827,-0.0,1.0,0.0,1.0,1.0,1.0, 1.0
67,0.0228,0.132,3.45,0.132,3.45,0.1325478134996827,0.0,0.9911766124846033,-0.0,1.0,0.0,1.0,1.0,1.0, 1.0
68,0.0228,0.132,3.45,0.132,3.45,0.17067464896968865,0.0,0.9853274400924159,-0.0,1.0,0.0,1.0,1.0,1.0, 1.0
69,0.0228,0.132,3.45,0.132,3.45,0.20878600144302992,0.0,0.9779613517933269,-0.0,1.0,0.0,1.0,1.0,1.0, 1.0
70,0.0228,0.132,3.45,0.132,3.45,0.24675715356135305,0.0,0.9690773483919117,-0.0,1.0,0.0,1.0,1.0,1.0, 1.0
71,0.0228,0.132,3.45,0.132,3.45,0.28445631368727164,0.0,0.9586890035895105,-0.0,1.0,0.0,1.0,1.0,1.0, 1.0
72,0.0228,0.132,3.45,0.132,3.45,0.3217516072957384,0.0,0.9468241141852106,-0.0,1.0,0.0,1.0,1.0,1.0, 1.0
73,0.0228,0.132,3.45,0.132,3.45,0.3585133133504201,0.0,0.9335246135750807,-0.0,1.0,0.0,1.0,1.0,1.0, 1.0
74,0.0228,0.132,3.45,0.132,3.45,0.3946050426705957,0.0,0.9188508368059188,-0.0,1.0,0.0,1.0,1.0,1.0, 1.0
75,0.0228,0.132,3.45,0.132,3.45,0.4298958917597253,0.0,0.9028784648268617,-0.0,1.0,0.0,1.0,1.0,1.0, 1.0
76,0.0228,0.132,3.45,0.132,3.45,0.4642713192454055,0.0,0.8856930292861803,-0.0,1.0,0.0,1.0,1.0,1.0, 1.0
77,0.0228,0.132,3.45,0.132,3.45,0.4976189820363149,0.0,0.867395727864244,-0.0,1.0,0.0,1.0,1.0,1.0, 1.0
78,0.0228,0.132,3.45,0.132,3.45,0.5298352975498699,0.0,0.8481005585838514,-0.0,1.0,0.0,1.0,1.0,1.0, 1.0
79,0.0228,0.132,3.45,0.132,3.45,0.5608230738335374,0.0,0.827935673742775,-0.0,1.0,0.0,1.0,1.0,1.0, 1.0
80,0.0228,0.132,3.45,0.132,3.45,0.590504825739305,0.0,0.807034107568319,-0.0,1.0,0.0,1.0,1.0,1.0, 1.0
81,0.0228,0.132,3.45,0.132,3.45,0.6188140558307851,0.0,0.7855375002546051,-0.0,1.0,0.0,1.0,1.0,1.0, 1.0
82,0.0228,0.132,3.45,0.132,3.45,0.6456996892138059,0.0,0.7635914557858767,-0.0,1.0,0.0,1.0,1.0,1.0, 1.0
83,0.0228,0.132,3.45,0.132,3.45,0.67117899570707,0.0,0.7412953228785739,-0.0,1.0,0.0,1.0,1.0,1.0, 1.0
84,0.0228,0.132,3.45,0.132,3.45,0.6953879906974884,0.0,0.7186344984717264,-0.0,1.0,0.0,1.0,1.0,1.0, 1.0
85,0.0228,0.132,3.45,0.132,3.45,0.018747013024570672,0.0,0.9998242593089329,-0.0,1.0,0.0,1.0,1.0,1.0, 1.0
86,0.0228,0.132,3.45,0.132,3.45,0.05625982506352224,0.0,0.9984161617701418,-0.0,1.0,0.0,1.0,1.0,1.0, 1.0
87,0.0228,0.132,3.45,0.132,3.45,0.09390146118989802,0.0,0.9955814962053092,-0.0,1.0,0.0,1.0,1.0,1.0, 1.0
88,0.0228,0.132,3.45,0.132,3.45,0.13170277968578561,0.0,0.9912892503316262,-0.0,1.0,0.0,1.0,1.0,1.0, 1.0
89,0.0228,0.132,3.45,0.132,3.45,0.16960388646691757,0.0,0.9855123143296165,-0.0,1.0,0.0,1.0,1.0,1.0, 1.0
90,0.0228,0.132,3.45,0.132,3.45,0.2074994096648069,0.0,0.9782351429941354,-0.0,1.0,0.0,1.0,1.0,1.0, 1.0
91,0.0228,0.132,3.45,0.132,3.45,0.24527083457666796,0.0,0.9694545980632948,-0.0,1.0,0.0,1.0,1.0,1.0, 1.0
92,0.0228,0.132,3.45,0.132,3.45,0.2827938887397027,0.0,0.9591807006458569,-0.0,1.0,0.0,1.0,1.0,1.0, 1.0
93,0.0228,0.132,3.45,0.132,3.45,0.31993950958895323,0.0,0.9474379716920682,-0.0,1.0,0.0,1.0,1.0,1.0, 1.0
94,0.0228,0.132,3.45,0.132,3.45,0.35657982150979406,0.0,0.9342648612101621,-0.0,1.0,0.0,1.0,1.0,1.0, 1.0
95,0.0228,0.132,3.45,0.132,3.45,0.392586651833002,0.0,0.9197150215162049,-0.0,1.0,0.0,1.0,1.0,1.0, 1.0
96,0.0228,0.132,3.45,0.132,3.45,0.42783731632938565,0.0,0.9038557577158368,-0.0,1.0,0.0,1.0,1.0,1.0, 1.0
97,0.0228,0.132,3.45,0.132,3.45,0.4622094374328612,0.0,0.8867707910999312,-0.0,1.0,0.0,1.0,1.0,1.0, 1.0
98,0.0228,0.132,3.45,0.132,3.45,0.4955958341991788,0.0,0.8685532621114379,-0.0,1.0,0.0,1.0,1.0,1.0, 1.0
99,0.0228,0.132,3.45,0.132,3.45,0.5278942255531043,0.0,0.8493101239404182,-0.0,1.0,0.0,1.0,1.0,1.0, 1.0
100,0.0228,0.132,3.45,0.132,3.45,0.5590142759363831,0.0,0.8291580303532742,-0.0,1.0,0.0,1.0,1.0,1.0, 1.0
101,0.0228,0.132,3.45,0.132,3.45,0.5888847403726749,0.0,0.8082170268908019,-0.0,1.0,0.0,1.0,1.0,1.0, 1.0
102,0.0228,0.132,3.45,0.132,3.45,0.6174390785480773,0.0,0.7866187032366453,-0.0,1.0,0.0,1.0,1.0,1.0, 1.0
103,0.0228,0.132,3.45,0.132,3.45,0.6446448073003425,0.0,0.7644822250521619,-0.0,1.0,0.0,1.0,1.0,1.0, 1.0
104,0.0228,0.132,3.45,0.132,3.45,0.6705122016606337,0.0,0.7418985021040343,-0.0,1.0,0.0,1.0,1.0,1.0, 1.0
105,0.0228,0.132,3.45,0.132,3.45,0.6951608276715561,0.0,0.7188542436899131,-0.0,1.0,0.0,1.0,1.0,1.0, 1.0
106,0.0228,0.132,3.45,0.132,3.45,0.018642694108183793,0.0,0.9998262098766908,-0.0,1.0,0.0,1.0,1.0,1.0, 1.0
107,0.0228,0.132,3.45,0.132,3.45,0.05595830442680197,0.0,0.9984331065052268,-0.0,1.0,0.0,1.0,1.0,1.0, 1.0
108,0.0228,0.132,3.45,0.132,3.45,0.09340918415371072,0.0,0.9956278041094162,-0.0,1.0,0.0,1.0,1.0,1.0, 1.0
109,0.0228,0.132,3.45,0.132,3.45,0.1310199919539438,0.0,0.9913797262948181,-0.0,1.0,0.0,1.0,1.0,1.0, 1.0
110,0.0228,0.132,3.45,0.132,3.45,0.16873199980978867,0.0,0.9856619665180297,-0.0,1.0,0.0,1.0,1.0,1.0, 1.0
111,0.0228,0.132,3.45,0.132,3.45,0.20644624454791496,0.0,0.978457943966966,-0.0,1.0,0.0,1.0,1.0,1.0, 1.0
112,0.0228,0.132,3.45,0.132,3.45,0.24405117866874798,0.0,0.9697623534610914,-0.0,1.0,0.0,1.0,1.0,1.0, 1.0
113,0.0228,0.132,3.45,0.132,3.45,0.2814235728494839,0.0,0.9595836454653816,-0.0,1.0,0.0,1.0,1.0,1.0, 1.0
114,0.0228,0.132,3.45,0.132,3.45,0.3184391484593376,0.0,0.9479433045960564,-0.0,1.0,0.0,1.0,1.0,1.0, 1.0
115,0.0228,0.132,3.45,0.132,3.45,0.35497705006749103,0.0,0.9348750151359174,-0.0,1.0,0.0,1.0,1.0,1.0, 1.0
116,0.0228,0.132,3.45,0.132,3.45,0.39090902519062914,0.0,0.9204293204937096,-0.0,1.0,0.0,1.0,1.0,1.0, 1.0
117,0.0228,0.132,3.45,0.132,3.45,0.42611858167337907,0.0,0.9046673169473227,-0.0,1.0,0.0,1.0,1.0,1.0, 1.0
118,0.0228,0.132,3.45,0.132,3.45,0.46048707835712377,0.0,0.8876664073097056,-0.0,1.0,0.0,1.0,1.0,1.0, 1.0
119,0.0228,0.132,3.45,0.132,3.45,0.49391039507062634,0.0,0.8695128070598946,-0.0,1.0,0.0,1.0,1.0,1.0, 1.0
120,0.0228,0.132,3.45,0.132,3.45,0.5262839386333059,0.0,0.8503088944240292,-0.0,1.0,0.0,1.0,1.0,1.0, 1.0
121,0.0228,0.132,3.45,0.132,3.45,0.5575273068224763,0.0,0.8301586005982692,-0.0,1.0,0.0,1.0,1.0,1.0, 1.0
122,0.0228,0.132,3.45,0.132,3.45,0.5875686505773315,0.0,0.8091743204395043,-0.0,1.0,0.0,1.0,1.0,1.0, 1.0
123,0.0228,0.132,3.45,0.132,3.45,0.6163353383811371,0.0,0.7874838097780864,-0.0,1.0,0.0,1.0,1.0,1.0, 1.0
124,0.0228,0.132,3.45,0.132,3.45,0.6438069911181837,0.0,0.7651879234458362,-0.0,1.0,0.0,1.0,1.0,1.0, 1.0
125,0.0228,0.132,3.45,0.132,3.45,0.6699881942730702,0.0,0.7423717529208063,-0.0,1.0,0.0,1.0,1.0,1.0, 1.0
126,0.0228,0.132,3.45,0.132,3.45,0.6949836407041713,0.0,0.7190255483316121,-0.0,1.0,0.0,1.0,1.0,1.0, 1.0
127,0.0228,0.132,3.45,0.132,3.45,0.018555752616182558,0.0,0.9998278272006871,-0.0,1.0,0.0,1.0,1.0,1.0, 1.0
128,0.0228,0.132,3.45,0.132,3.45,0.05570836314935673,0.0,0.9984470833625683,-0.0,1.0,0.0,1.0,1.0,1.0, 1.0
129,0.0228,0.132,3.45,0.132,3.45,0.0930000330348671,0.0,0.9956661056074538,-0.0,1.0,0.0,1.0,1.0,1.0, 1.0
130,0.0228,0.132,3.45,0.132,3.45,0.1304495747143206,0.0,0.9914549452480697,-0.0,1.0,0.0,1.0,1.0,1.0, 1.0
131,0.0228,0.132,3.45,0.132,3.45,0.16799916907901538,0.0,0.9857871368549908,-0.0,1.0,0.0,1.0,1.0,1.0, 1.0
132,0.0228,0.132,3.45,0.132,3.45,0.20555680226574857,0.0,0.9786451864911409,-0.0,1.0,0.0,1.0,1.0,1.0, 1.0
133,0.0228,0.132,3.45,0.132,3.45,0.24301326864201256,0.0,0.970022964297199,-0.0,1.0,0.0,1.0,1.0,1.0, 1.0
134,0.0228,0.132,3.45,0.132,3.45,0.28025258273222564,0.0,0.9599262939788228,-0.0,1.0,0.0,1.0,1.0,1.0, 1.0
135,0.0228,0.132,3.45,0.132,3.45,0.3171526929986756,0.0,0.9483744879127062,-0.0,1.0,0.0,1.0,1.0,1.0, 1.0
136,0.0228,0.132,3.45,0.132,3.45,0.35359312248727187,0.0,0.9353993284847393,-0.0,1.0,0.0,1.0,1.0,1.0, 1.0
137,0.0228,0.132,3.45,0.132,3.45,0.3894549554534913,0.0,0.9210455133557295,-0.0,1.0,0.0,1.0,1.0,1.0, 1.0
138,0.0228,0.132,3.45,0.132,3.45,0.4246227760661929,0.0,0.9053703651245936,-0.0,1.0,0.0,1.0,1.0,1.0, 1.0
139,0.0228,0.132,3.45,0.132,3.45,0.45898577579107586,0.0,0.8884436153304632,-0.0,1.0,0.0,1.0,1.0,1.0, 1.0
140,0.0228,0.132,3.45,0.132,3.45,0.4924419045314733,0.0,0.8703453169066949,-0.0,1.0,0.0,1.0,1.0,1.0, 1.0
141,0.0228,0.132,3.45,0.132,3.45,0.5248896150202973,0.0,0.8511703073086161,-0.0,1.0,0.0,1.0,1.0,1.0, 1.0
142,0.0228,0.132,3.45,0.132,3.45,0.5562444231532997,0.0,0.831018737280245,-0.0,1.0,0.0,1.0,1.0,1.0, 1.0
143,0.0228,0.132,3.45,0.132,3.45,0.5864302709125189,0.0,0.8099997144181409,-0.0,1.0,0.0,1.0,1.0,1.0, 1.0
144,0.0228,0.132,3.45,0.132,3.45,0.6153909099621626,0.0,0.788222067653489,-0.0,1.0,0.0,1.0,1.0,1.0, 1.0
145,0.0228,0.132,3.45,0.132,3.45,0.6430966348140182,0.0,0.7657850339951059,-0.0,1.0,0.0,1.0,1.0,1.0, 1.0
146,0.0228,0.132,3.45,0.132,3.45,0.6695437350959452,0.0,0.7427726346559699,-0.0,1.0,0.0,1.0,1.0,1.0, 1.0
147,0.0228,0.132,3.45,0.132,3.45,0.6948336065559525,0.0,0.7191705355480353,-0.0,1.0,0.0,1.0,1.0,1.0, 1.0
148,0.0228,0.132,3.45,0.132,3.45,0.018483338574433905,0.0,0.9998291685058716,-0.0,1.0,0.0,1.0,1.0,1.0, 1.0
149,0.0228,0.132,3.45,0.132,3.45,0.05550111451279491,0.0,0.9984586252258215,-0.0,1.0,0.0,1.0,1.0,1.0, 1.0
150,0.0228,0.132,3.45,0.132,3.45,0.09265891819529364,0.0,0.9956979084435589,-0.0,1.0,0.0,1.0,1.0,1.0, 1.0
151,0.0228,0.132,3.45,0.132,3.45,0.12997059110806972,0.0,0.9915178492831176,-0.0,1.0,0.0,1.0,1.0,1.0, 1.0
152,0.0228,0.132,3.45,0.132,3.45,0.16738226640802437,0.0,0.985892071624533,-0.0,1.0,0.0,1.0,1.0,1.0, 1.0
153,0.0228,0.132,3.45,0.132,3.45,0.20480181279629203,0.0,0.9788034621288139,-0.0,1.0,0.0,1.0,1.0,1.0, 1.0
154,0.0228,0.132,3.45,0.132,3.45,0.24212361453568987,0.0,0.9702454098238098,-0.0,1.0,0.0,1.0,1.0,1.0, 1.0
155,0.0228,0.132,3.45,0.132,3.45,0.27923756487384604,0.0,0.9602220484676056,-0.0,1.0,0.0,1.0,1.0,1.0, 1.0
156,0.0228,0.132,3.45,0.132,3.45,0.3160279251196353,0.0,0.9487498882975315,-0.0,1.0,0.0,1.0,1.0,1.0, 1.0
157,0.0228,0.132,3.45,0.132,3.45,0.352376337401891,0.0,0.9358583850344178,-0.0,1.0,0.0,1.0,1.0,1.0, 1.0
158,0.0228,0.132,3.45,0.132,3.45,0.3881725607138711,0.0,0.921586709490125,-0.0,1.0,0.0,1.0,1.0,1.0, 1.0
159,0.0228,0.132,3.45,0.132,3.45,0.4233052608875791,0.0,0.9059871169640872,-0.0,1.0,0.0,1.0,1.0,1.0, 1.0
160,0.0228,0.132,3.45,0.132,3.45,0.45765730876627797,0.0,0.8891286677038411,-0.0,1.0,0.0,1.0,1.0,1.0, 1.0
161,0.0228,0.132,3.45,0.132,3.45,0.49113238434719614,0.0,0.8710849447932377,-0.0,1.0,0.0,1.0,1.0,1.0, 1.0
162,0.0228,0.132,3.45,0.132,3.45,0.5236396762753719,0.0,0.851939839090897,-0.0,1.0,0.0,1.0,1.0,1.0, 1.0
163,0.0228,0.132,3.45,0.132,3.45,0.5550992794813271,0.0,0.8317841005449138,-0.0,1.0,0.0,1.0,1.0,1.0, 1.0
164,0.0228,0.132,3.45,0.132,3.45,0.5854245688902762,0.0,0.8107268801141567,-0.0,1.0,0.0,1.0,1.0,1.0, 1.0
165,0.0228,0.132,3.45,0.132,3.45,0.6145528712340258,0.0,0.788875635609324,-0.0,1.0,0.0,1.0,1.0,1.0, 1.0
166,0.0228,0.132,3.45,0.132,3.45,0.6424618893359758,0.0,0.7663176369827648,-0.0,1.0,0.0,1.0,1.0,1.0, 1.0
167,0.0228,0.132,3.45,0.132,3.45,0.6691538866053091,0.0,0.7431238631890441,-0.0,1.0,0.0,1.0,1.0,1.0, 1.0
168,0.0228,0.132,3.45,0.132,3.45,0.694706014868582,0.0,0.7192937876176977,-0.0,1.0,0.0,1.0,1.0,1.0, 1.0
169,0.0228,0.132,3.45,0.132,3.45,0.018424260093143924,0.0,0.9998302589139919,-0.0,1.0,0.0,1.0,1.0,1.0, 1.0
170,0.0228,0.132,3.45,0.132,3.45,0.05533169249245398,0.0,0.9984680284345215,-0.0,1.0,0.0,1.0,1.0,1.0, 1.0
171,0.0228,0.132,3.45,0.132,3.45,0.0923796829333299,0.0,0.9957238543798865,-0.0,1.0,0.0,1.0,1.0,1.0, 1.0
172,0.0228,0.132,3.45,0.132,3.45,0.12957659800622393,0.0,0.9915694152449104,-0.0,1.0,0.0,1.0,1.0,1.0, 1.0
173,0.0228,0.132,3.45,0.132,3.45,0.16686666383696785,0.0,0.985979470628025,-0.0,1.0,0.0,1.0,1.0,1.0, 1.0
174,0.0228,0.132,3.45,0.132,3.45,0.20416300444611646,0.0,0.9789369068614866,-0.0,1.0,0.0,1.0,1.0,1.0, 1.0
175,0.0228,0.132,3.45,0.132,3.45,0.24136341299363284,0.0,0.9704348009361913,-0.0,1.0,0.0,1.0,1.0,1.0, 1.0
176,0.0228,0.132,3.45,0.132,3.45,0.2783614343771082,0.0,0.9604763983833848,-0.0,1.0,0.0,1.0,1.0,1.0, 1.0
177,0.0228,0.132,3.45,0.132,3.45,0.31504746968191993,0.0,0.9490759146912431,-0.0,1.0,0.0,1.0,1.0,1.0, 1.0
178,0.0228,0.132,3.45,0.132,3.45,0.351312026850354,0.0,0.9362584364321083,-0.0,1.0,0.0,1.0,1.0,1.0, 1.0
179,0.0228,0.132,3.45,0.132,3.45,0.3870437009420277,0.0,0.9220613719059584,-0.0,1.0,0.0,1.0,1.0,1.0, 1.0
180,0.0228,0.132,3.45,0.132,3.45,0.42213075555682084,0.0,0.9065349553177902,-0.0,1.0,0.0,1.0,1.0,1.0, 1.0
181,0.0228,0.132,3.45,0.132,3.45,0.45647011635256696,0.0,0.8897387441699244,-0.0,1.0,0.0,1.0,1.0,1.0, 1.0
182,0.0228,0.132,3.45,0.132,3.45,0.4899619614375899,0.0,0.8717438134820515,-0.0,1.0,0.0,1.0,1.0,1.0, 1.0
183,0.0228,0.132,3.45,0.132,3.45,0.522517503632854,0.0,0.8526285582815594,-0.0,1.0,0.0,1.0,1.0,1.0, 1.0
184,0.0228,0.132,3.45,0.132,3.45,0.5540586759779222,0.0,0.8324776174610293,-0.0,1.0,0.0,1.0,1.0,1.0, 1.0
185,0.0228,0.132,3.45,0.132,3.45,0.5845057114514906,0.0,0.8113895940179333,-0.0,1.0,0.0,1.0,1.0,1.0, 1.0
186,0.0228,0.132,3.45,0.132,3.45,0.6137911888871456,0.0,0.7894684138358574,-0.0,1.0,0.0,1.0,1.0,1.0, 1.0
187,0.0228,0.132,3.45,0.132,3.45,0.6418884812835072,0.0,0.7667980031243903,-0.0,1.0,0.0,1.0,1.0,1.0, 1.0
188,0.0228,0.132,3.45,0.132,3.45,0.6688025823344322,0.0,0.7434400486002856,-0.0,1.0,0.0,1.0,1.0,1.0, 1.0
189,0.0228,0.132,3.45,0.132,3.45,0.6945898316463415,0.0,0.7194059811910843,-0.0,1.0,0.0,1.0,1.0,1.0, 1.0
190,0.0228,0.132,3.45,0.132,3.45,0.018378190733318735,0.0,0.9998311067902268,-0.0,1.0,0.0,1.0,1.0,1.0, 1.0
191,0.0228,0.132,3.45,0.132,3.45,0.055199882294081334,0.0,0.9984753241791805,-0.0,1.0,0.0,1.0,1.0,1.0, 1.0
192,0.0228,0.132,3.45,0.132,3.45,0.09216039532300521,0.0,0.995744174742643,-0.0,1.0,0.0,1.0,1.0,1.0, 1.0
193,0.0228,0.132,3.45,0.132,3.45,0.12926345932774336,0.0,0.9916102853856574,-0.0,1.0,0.0,1.0,1.0,1.0, 1.0
194,0.0228,0.132,3.45,0.132,3.45,0.16644889240385377,0.0,0.9860500830168467,-0.0,1.0,0.0,1.0,1.0,1.0, 1.0
195,0.0228,0.132,3.45,0.132,3.45,0.20363423177088813,0.0,0.9790470364855205,-0.0,1.0,0.0,1.0,1.0,1.0, 1.0
196,0.0228,0.132,3.45,0.132,3.45,0.24072600594914628,0.0,0.9705931125140811,-0.0,1.0,0.0,1.0,1.0,1.0, 1.0
197,0.0228,0.132,3.45,0.132,3.45,0.2776172818860872,0.0,0.9606917532685396,-0.0,1.0,0.0,1.0,1.0,1.0, 1.0
198,0.0228,0.132,3.45,0.132,3.45,0.3142046681052414,0.0,0.9493552688750798,-0.0,1.0,0.0,1.0,1.0,1.0, 1.0
199,0.0228,0.132,3.45,0.132,3.45,0.350386520211906,0.0,0.9366051924123586,-0.0,1.0,0.0,1.0,1.0,1.0, 1.0
200,0.0228,0.132,3.45,0.132,3.45,0.3860515935956611,0.0,0.9224771905484983,-0.0,1.0,0.0,1.0,1.0,1.0, 1.0
201,0.0228,0.132,3.45,0.132,3.45,0.4210902091921581,0.0,0.9070187626077557,-0.0,1.0,0.0,1.0,1.0,1.0, 1.0
202,0.0228,0.132,3.45,0.132,3.45,0.45540948572589646,0.0,0.890282090301088,-0.0,1.0,0.0,1.0,1.0,1.0, 1.0
203,0.0228,0.132,3.45,0.132,3.45,0.4889116874161554,0.0,0.8723332860254088,-0.0,1.0,0.0,1.0,1.0,1.0, 1.0
204,0.0228,0.132,3.45,0.132,3.45,0.521506236947437,0.0,0.8532474698614252,-0.0,1.0,0.0,1.0,1.0,1.0, 1.0
205,0.0228,0.132,3.45,0.132,3.45,0.5531163303116386,0.0,0.8331040302042635,-0.0,1.0,0.0,1.0,1.0,1.0, 1.0
206,0.0228,0.132,3.45,0.132,3.45,0.583669257891361,0.0,0.8119915008129998,-0.0,1.0,0.0,1.0,1.0,1.0, 1.0
207,0.0228,0.132,3.45,0.132,3.45,0.6130990598683244,0.0,0.7900060397165182,-0.0,1.0,0.0,1.0,1.0,1.0, 1.0
208,0.0228,0.132,3.45,0.132,3.45,0.6413705091410078,0.0,0.7672313015018379,-0.0,1.0,0.0,1.0,1.0,1.0, 1.0
209,0.0228,0.132,3.45,0.132,3.45,0.668481239370819,0.0,0.74372900481913,-0.0,1.0,0.0,1.0,1.0,1.0, 1.0
210,0.0228,0.132,3.45,0.132,3.45,0.6944813418988507,0.0,0.7195107127446899,-0.0,1.0,0.0,1.0,1.0,1.0, 1.0
211,0.0228,0.132,3.45,0.132,3.45,0.01834505688164658,0.0,0.9998317152841318,-0.0,1.0,0.0,1.0,1.0,1.0, 1.0
212,0.0228,0.132,3.45,0.132,3.45,0.055106675499488486,0.0,0.9984804726760529,-0.0,1.0,0.0,1.0,1.0,1.0, 1.0
213,0.0228,0.132,3.45,0.132,3.45,0.0920024990993474,0.0,0.995758776089608,-0.0,1.0,0.0,1.0,1.0,1.0, 1.0
214,0.0228,0.132,3.45,0.132,3.45,0.1290268880662628,0.0,0.9916410954352064,-0.0,1.0,0.0,1.0,1.0,1.0, 1.0
215,0.0228,0.132,3.45,0.132,3.45,0.16612406289151113,0.0,0.9861048604121253,-0.0,1.0,0.0,1.0,1.0,1.0, 1.0
216,0.0228,0.132,3.45,0.132,3.45,0.20321524972616184,0.0,0.9791340879975191,-0.0,1.0,0.0,1.0,1.0,1.0, 1.0
217,0.0228,0.132,3.45,0.132,3.45,0.24020783406827503,0.0,0.9707214824305826,-0.0,1.0,0.0,1.0,1.0,1.0, 1.0
218,0.0228,0.132,3.45,0.132,3.45,0.27699927949005076,0.0,0.9608701260638676,-0.0,1.0,0.0,1.0,1.0,1.0, 1.0
219,0.0228,0.132,3.45,0.132,3.45,0.31349558030691,0.0,0.9495896593413566,-0.0,1.0,0.0,1.0,1.0,1.0, 1.0
220,0.0228,0.132,3.45,0.132,3.45,0.34959505325637813,0.0,0.9369009012369826,-0.0,1.0,0.0,1.0,1.0,1.0, 1.0
221,0.0228,0.132,3.45,0.132,3.45,0.3851922466086502,0.0,0.9228363523142014,-0.0,1.0,0.0,1.0,1.0,1.0, 1.0
222,0.0228,0.132,3.45,0.132,3.45,0.42018456270054977,0.0,0.9074386663946759,-0.0,1.0,0.0,1.0,1.0,1.0, 1.0
223,0.0228,0.132,3.45,0.132,3.45,0.45447449913158405,0.0,0.8907597485512556,-0.0,1.0,0.0,1.0,1.0,1.0, 1.0
224,0.0228,0.132,3.45,0.132,3.45,0.4879751125853344,0.0,0.8728575424989637,-0.0,1.0,0.0,1.0,1.0,1.0, 1.0
225,0.0228,0.132,3.45,0.132,3.45,0.5205988437424593,0.0,0.8538014077606187,-0.0,1.0,0.0,1.0,1.0,1.0, 1.0
226,0.0228,0.132,3.45,0.132,3.45,0.5522694129312985,0.0,0.8336656977113301,-0.0,1.0,0.0,1.0,1.0,1.0, 1.0
227,0.0228,0.132,3.45,0.132,3.45,0.5829130556349548,0.0,0.8125345343862747,-0.0,1.0,0.0,1.0,1.0,1.0, 1.0
228,0.0228,0.132,3.45,0.132,3.45,0.6124691131473401,0.0,0.790494519551218,-0.0,1.0,0.0,1.0,1.0,1.0, 1.0
229,0.0228,0.132,3.45,0.132,3.45,0.6408990824531821,0.0,0.7676251468722669,-0.0,1.0,0.0,1.0,1.0,1.0, 1.0
230,0.0228,0.132,3.45,0.132,3.45,0.6681852155147348,0.0,0.7439949716009696,-0.0,1.0,0.0,1.0,1.0,1.0, 1.0
231,0.0228,0.132,3.45,0.132,3.45,0.6943801400376256,0.0,0.7196083803856981,-0.0,1.0,0.0,1.0,1.0,1.0, 1.0
232,0.0228,0.132,3.45,0.132,3.45,0.01832463311085146,0.0,0.9998320898137609,-0.0,1.0,0.0,1.0,1.0,1.0, 1.0
233,0.0228,0.132,3.45,0.132,3.45,0.055049851627824484,0.0,0.9984836071943067,-0.0,1.0,0.0,1.0,1.0,1.0, 1.0
234,0.0228,0.132,3.45,0.132,3.45,0.09190260031623909,0.0,0.995768001120298,-0.0,1.0,0.0,1.0,1.0,1.0, 1.0
235,0.0228,0.132,3.45,0.132,3.45,0.12886775999118885,0.0,0.9916617873220958,-0.0,1.0,0.0,1.0,1.0,1.0, 1.0
236,0.0228,0.132,3.45,0.132,3.45,0.1658927606350294,0.0,0.9861437988289989,-0.0,1.0,0.0,1.0,1.0,1.0, 1.0
237,0.0228,0.132,3.45,0.132,3.45,0.202903671819385,0.0,0.979198703002721,-0.0,1.0,0.0,1.0,1.0,1.0, 1.0
238,0.0228,0.132,3.45,0.132,3.45,0.23980706479727285,0.0,0.9708205661569581,-0.0,1.0,0.0,1.0,1.0,1.0, 1.0
239,0.0228,0.132,3.45,0.132,3.45,0.2765079311959344,0.0,0.9610116357181865,-0.0,1.0,0.0,1.0,1.0,1.0, 1.0
240,0.0228,0.132,3.45,0.132,3.45,0.3129162916312688,0.0,0.949780708601588,-0.0,1.0,0.0,1.0,1.0,1.0, 1.0
241,0.0228,0.132,3.45,0.132,3.45,0.34893367568020106,0.0,0.9371474216879137,-0.0,1.0,0.0,1.0,1.0,1.0, 1.0
242,0.0228,0.132,3.45,0.132,3.45,0.384461073864612,0.0,0.923141204086823,-0.0,1.0,0.0,1.0,1.0,1.0, 1.0
243,0.0228,0.132,3.45,0.132,3.45,0.41940247582175555,0.0,0.9078003983666132,-0.0,1.0,0.0,1.0,1.0,1.0, 1.0
244,0.0228,0.132,3.45,0.132,3.45,0.4536592968287649,0.0,0.8911752029768505,-0.0,1.0,0.0,1.0,1.0,1.0, 1.0
245,0.0228,0.132,3.45,0.132,3.45,0.48714887755568287,0.0,0.8733189400764411,-0.0,1.0,0.0,1.0,1.0,1.0, 1.0
246,0.0228,0.132,3.45,0.132,3.45,0.51979617104518,0.0,0.8542903139839348,-0.0,1.0,0.0,1.0,1.0,1.0, 1.0
247,0.0228,0.132,3.45,0.132,3.45,0.5515114659817951,0.0,0.8341673110896946,-0.0,1.0,0.0,1.0,1.0,1.0, 1.0
248,0.0228,0.132,3.45,0.132,3.45,0.5822213185681642,0.0,0.813030341503162,-0.0,1.0,0.0,1.0,1.0,1.0, 1.0
249,0.0228,0.132,3.45,0.132,3.45,0.6118842440671892,0.0,0.7909473255927506,-0.0,1.0,0.0,1.0,1.0,1.0, 1.0
250,0.0228,0.132,3.45,0.132,3.45,0.6404597303258421,0.0,0.76799175375192,-0.0,1.0,0.0,1.0,1.0,1.0, 1.0
251,0.0228,0.132,3.45,0.132,3.45,0.6679144621257542,0.0,0.7442380474574413,-0.0,1.0,0.0,1.0,1.0,1.0, 1.0
252,0.0228,0.132,3.45,0.132,3.45,0.694289533168455,0.0,0.7196957997186929,-0.0,1.0,0.0,1.0,1.0,1.0, 1.0
253,0.0228,0.132,3.45,0.132,3.45,0.018316763936403756,0.0,0.9998322340067348,-0.0,1.0,0.0,1.0,1.0,1.0, 1.0
254,0.0228,0.132,3.45,0.132,3.45,0.05502796602674508,0.0,0.9984848135825399,-0.0,1.0,0.0,1.0,1.0,1.0, 1.0
255,0.0228,0.132,3.45,0.132,3.45,0.09185727370562467,0.0,0.9957721834171559,-0.0,1.0,0.0,1.0,1.0,1.0, 1.0
256,0.0228,0.132,3.45,0.132,3.45,0.12878595877244703,0.0,0.9916724140678017,-0.0,1.0,0.0,1.0,1.0,1.0, 1.0
257,0.0228,0.132,3.45,0.132,3.45,0.16575764968406437,0.0,0.9861665181759188,-0.0,1.0,0.0,1.0,1.0,1.0, 1.0
258,0.0228,0.132,3.45,0.132,3.45,0.20269781395042175,0.0,0.9792413370664661,-0.0,1.0,0.0,1.0,1.0,1.0, 1.0
259,0.0228,0.132,3.45,0.132,3.45,0.23952169857532946,0.0,0.9708910113455521,-0.0,1.0,0.0,1.0,1.0,1.0, 1.0
260,0.0228,0.132,3.45,0.132,3.45,0.2761381129705732,0.0,0.9611179649580227,-0.0,1.0,0.0,1.0,1.0,1.0, 1.0
261,0.0228,0.132,3.45,0.132,3.45,0.31246057855805365,0.0,0.9499307273939328,-0.0,1.0,0.0,1.0,1.0,1.0, 1.0
262,0.0228,0.132,3.45,0.132,3.45,0.3483985201274368,0.0,0.9373465053932896,-0.0,1.0,0.0,1.0,1.0,1.0, 1.0
263,0.0228,0.132,3.45,0.132,3.45,0.38385462595632697,0.0,0.9233935380605218,-0.0,1.0,0.0,1.0,1.0,1.0, 1.0
264,0.0228,0.132,3.45,0.132,3.45,0.4187364561617125,0.0,0.908107802125458,-0.0,1.0,0.0,1.0,1.0,1.0, 1.0
265,0.0228,0.132,3.45,0.132,3.45,0.4529564793078756,0.0,0.8915326285969651,-0.0,1.0,0.0,1.0,1.0,1.0, 1.0
266,0.0228,0.132,3.45,0.132,3.45,0.48643274433263395,0.0,0.8737180238732759,-0.0,1.0,0.0,1.0,1.0,1.0, 1.0
267,0.0228,0.132,3.45,0.132,3.45,0.5190815835700975,0.0,0.85472469813289,-0.0,1.0,0.0,1.0,1.0,1.0, 1.0
268,0.0228,0.132,3.45,0.132,3.45,0.5508314842674626,0.0,0.8346164843445785,-0.0,1.0,0.0,1.0,1.0,1.0, 1.0
269,0.0228,0.132,3.45,0.132,3.45,0.5816108672464816,0.0,0.813467146909324,-0.0,1.0,0.0,1.0,1.0,1.0, 1.0
270,0.0228,0.132,3.45,0.132,3.45,0.6113637016740767,0.0,0.7913497483890233,-0.0,1.0,0.0,1.0,1.0,1.0, 1.0
271,0.0228,0.132,3.45,0.132,3.45,0.6400598523310344,0.0,0.7683250519369875,-0.0,1.0,0.0,1.0,1.0,1.0, 1.0
272,0.0228,0.132,3.45,0.132,3.45,0.6676690357701255,0.0,0.7444582316515755,-0.0,1.0,0.0,1.0,1.0,1.0, 1.0
273,0.0228,0.132,3.45,0.132,3.45,0.6942095094298697,0.0,0.7197729899191407,-0.0,1.0,0.0,1.0,1.0,1.0, 1.0
274,0.0228,0.132,3.45,0.132,3.45,0.018320898296616744,0.0,0.9998321582573771,-0.0,1.0,0.0,1.0,1.0,1.0, 1.0
275,0.0228,0.132,3.45,0.132,3.45,0.05504013989168156,0.0,0.998484142588506,-0.0,1.0,0.0,1.0,1.0,1.0, 1.0
276,0.0228,0.132,3.45,0.132,3.45,0.0918655595870594,0.0,0.9957714190323784,-0.0,1.0,0.0,1.0,1.0,1.0, 1.0
277,0.0228,0.132,3.45,0.132,3.45,0.12877338786014375,0.0,0.9916740465389932,-0.0,1.0,0.0,1.0,1.0,1.0, 1.0
278,0.0228,0.132,3.45,0.132,3.45,0.16570544349107208,0.0,0.9861752917191887,-0.0,1.0,0.0,1.0,1.0,1.0, 1.0
279,0.0228,0.132,3.45,0.132,3.45,0.2025867209988623,0.0,0.9792643261525098,-0.0,1.0,0.0,1.0,1.0,1.0, 1.0
280,0.0228,0.132,3.45,0.132,3.45,0.23934120583808105,0.0,0.9709355216429015,-0.0,1.0,0.0,1.0,1.0,1.0, 1.0
281,0.0228,0.132,3.45,0.132,3.45,0.27588375534814497,0.0,0.9611910078309122,-0.0,1.0,0.0,1.0,1.0,1.0, 1.0
282,0.0228,0.132,3.45,0.132,3.45,0.31212483287400766,0.0,0.9500410984285746,-0.0,1.0,0.0,1.0,1.0,1.0, 1.0
283,0.0228,0.132,3.45,0.132,3.45,0.34798331307770447,0.0,0.9375007273700987,-0.0,1.0,0.0,1.0,1.0,1.0, 1.0
284,0.0228,0.132,3.45,0.132,3.45,0.3833666049487357,0.0,0.9235962571438237,-0.0,1.0,0.0,1.0,1.0,1.0, 1.0
285,0.0228,0.132,3.45,0.132,3.45,0.4181847893635409,0.0,0.9083619773773949,-0.0,1.0,0.0,1.0,1.0,1.0, 1.0
286,0.0228,0.132,3.45,0.132,3.45,0.45236149941013964,0.0,0.891834667329887,-0.0,1.0,0.0,1.0,1.0,1.0, 1.0
287,0.0228,0.132,3.45,0.132,3.45,0.4858157447388906,0.0,0.8740612462315195,-0.0,1.0,0.0,1.0,1.0,1.0, 1.0
288,0.0228,0.132,3.45,0.132,3.45,0.5184585099033514,0.0,0.8551027853473502,-0.0,1.0,0.0,1.0,1.0,1.0, 1.0
289,0.0228,0.132,3.45,0.132,3.45,0.5502317807132705,0.0,0.8350119684729695,-0.0,1.0,0.0,1.0,1.0,1.0, 1.0
290,0.0228,0.132,3.45,0.132,3.45,0.5810692379122971,0.0,0.813854127440552,-0.0,1.0,0.0,1.0,1.0,1.0, 1.0
291,0.0228,0.132,3.45,0.132,3.45,0.6109037827251556,0.0,0.7917048492033478,-0.0,1.0,0.0,1.0,1.0,1.0, 1.0
292,0.0228,0.132,3.45,0.132,3.45,0.6396997621641055,0.0,0.7686248852900788,-0.0,1.0,0.0,1.0,1.0,1.0, 1.0
293,0.0228,0.132,3.45,0.132,3.45,0.6674388548998915,0.0,0.7446646056916641,-0.0,1.0,0.0,1.0,1.0,1.0, 1.0
294,0.0228,0.132,3.45,0.132,3.45,0.6941336133827779,0.0,0.7198461827169524,-0.0,1.0,0.0,1.0,1.0,1.0, 1.0
295,0.0228,0.132,3.45,0.132,3.45,0.018336159692271658,0.0,0.999831878491449,-0.0,1.0,0.0,1.0,1.0,1.0, 1.0
296,0.0228,0.132,3.45,0.132,3.45,0.05508487136283791,0.0,0.998481675819311,-0.0,1.0,0.0,1.0,1.0,1.0, 1.0
297,0.0228,0.132,3.45,0.132,3.45,0.09192509074262517,0.0,0.995765925151067,-0.0,1.0,0.0,1.0,1.0,1.0, 1.0
298,0.0228,0.132,3.45,0.132,3.45,0.12882461927634783,0.0,0.9916673925607841,-0.0,1.0,0.0,1.0,1.0,1.0, 1.0
299,0.0228,0.132,3.45,0.132,3.45,0.1657281526269663,0.0,0.9861714756708658,-0.0,1.0,0.0,1.0,1.0,1.0, 1.0
300,0.0228,0.132,3.45,0.132,3.45,0.2025647789029212,0.0,0.9792688651989354,-0.0,1.0,0.0,1.0,1.0,1.0, 1.0
301,0.0228,0.132,3.45,0.132,3.45,0.23925830745160903,0.0,0.9709559528193805,-0.0,1.0,0.0,1.0,1.0,1.0, 1.0
302,0.0228,0.132,3.45,0.132,3.45,0.2757307004131306,0.0,0.9612349249011317,-0.0,1.0,0.0,1.0,1.0,1.0, 1.0
303,0.0228,0.132,3.45,0.132,3.45,0.31189652841433885,0.0,0.9501160747840672,-0.0,1.0,0.0,1.0,1.0,1.0, 1.0
304,0.0228,0.132,3.45,0.132,3.45,0.34767646757622883,0.0,0.9376145657431498,-0.0,1.0,0.0,1.0,1.0,1.0, 1.0
305,0.0228,0.132,3.45,0.132,3.45,0.3829833648698878,0.0,0.923755239353444,-0.0,1.0,0.0,1.0,1.0,1.0, 1.0
306,0.0228,0.132,3.45,0.132,3.45,0.41774001045937426,0.0,0.9085666093696168,-0.0,1.0,0.0,1.0,1.0,1.0, 1.0
307,0.0228,0.132,3.45,0.132,3.45,0.45186832079557915,0.0,0.8920846488206058,-0.0,1.0,0.0,1.0,1.0,1.0, 1.0
308,0.0228,0.132,3.45,0.132,3.45,0.4852858032759366,0.0,0.8743555850675566,-0.0,1.0,0.0,1.0,1.0,1.0, 1.0
309,0.0228,0.132,3.45,0.132,3.45,0.5179244287427867,0.0,0.8554263767919821,-0.0,1.0,0.0,1.0,1.0,1.0, 1.0
310,0.0228,0.132,3.45,0.132,3.45,0.5497135788399027,0.0,0.8353532074751531,-0.0,1.0,0.0,1.0,1.0,1.0, 1.0
311,0.0228,0.132,3.45,0.132,3.45,0.5805856064165773,0.0,0.81419921003517,-0.0,1.0,0.0,1.0,1.0,1.0, 1.0
312,0.0228,0.132,3.45,0.132,3.45,0.6104863866431929,0.0,0.7920267493736166,-0.0,1.0,0.0,1.0,1.0,1.0, 1.0
313,0.0228,0.132,3.45,0.132,3.45,0.6393760232656686,0.0,0.7688942065544384,-0.0,1.0,0.0,1.0,1.0,1.0, 1.0
314,0.0228,0.132,3.45,0.132,3.45,0.6672340618994727,0.0,0.7448481097788534,-0.0,1.0,0.0,1.0,1.0,1.0, 1.0
315,0.0228,0.132,3.45,0.132,3.45,0.6940647552715353,0.0,0.7199125748935518,-0.0,1.0,0.0,1.0,1.0,1.0, 1.0
316,0.0228,0.132,3.45,0.132,3.45,0.0183617561690943,0.0,0.9998314087436875,-0.0,1.0,0.0,1.0,1.0,1.0, 1.0
317,0.0228,0.132,3.45,0.132,3.45,0.0551585464153699,0.0,0.9984776085407943,-0.0,1.0,0.0,1.0,1.0,1.0, 1.0
318,0.0228,0.132,3.45,0.132,3.45,0.09202996898120709,0.0,0.9957562376451969,-0.0,1.0,0.0,1.0,1.0,1.0, 1.0
319,0.0228,0.132,3.45,0.132,3.45,0.1289370090386196,0.0,0.9916527858581223,-0.0,1.0,0.0,1.0,1.0,1.0, 1.0
320,0.0228,0.132,3.45,0.132,3.45,0.16582499903153997,0.0,0.9861551955428667,-0.0,1.0,0.0,1.0,1.0,1.0, 1.0
321,0.0228,0.132,3.45,0.132,3.45,0.2026276632346084,0.0,0.9792558552758732,-0.0,1.0,0.0,1.0,1.0,1.0, 1.0
322,0.0228,0.132,3.45,0.132,3.45,0.23926754902827121,0.0,0.9709536755077474,-0.0,1.0,0.0,1.0,1.0,1.0, 1.0
323,0.0228,0.132,3.45,0.132,3.45,0.2756718297636175,0.0,0.9612518100241887,-0.0,1.0,0.0,1.0,1.0,1.0, 1.0
324,0.0228,0.132,3.45,0.132,3.45,0.3117663269145204,0.0,0.9501588064119746,-0.0,1.0,0.0,1.0,1.0,1.0, 1.0
325,0.0228,0.132,3.45,0.132,3.45,0.3474710532570579,0.0,0.9376907097483854,-0.0,1.0,0.0,1.0,1.0,1.0, 1.0
326,0.0228,0.132,3.45,0.132,3.45,0.38270376454718713,0.0,0.923871110383592,-0.0,1.0,0.0,1.0,1.0,1.0, 1.0
327,0.0228,0.132,3.45,0.132,3.45,0.41739229516569365,0.0,0.9087264010340595,-0.0,1.0,0.0,1.0,1.0,1.0, 1.0
328,0.0228,0.132,3.45,0.132,3.45,0.4514650944362612,0.0,0.8922887808919585,-0.0,1.0,0.0,1.0,1.0,1.0, 1.0
329,0.0228,0.132,3.45,0.132,3.45,0.4848418077186062,0.0,0.8746018645578992,-0.0,1.0,0.0,1.0,1.0,1.0, 1.0
330,0.0228,0.132,3.45,0.132,3.45,0.5174637081844835,0.0,0.8557051540758439,-0.0,1.0,0.0,1.0,1.0,1.0, 1.0
331,0.0228,0.132,3.45,0.132,3.45,0.5492582853477227,0.0,0.8356526407406847,-0.0,1.0,0.0,1.0,1.0,1.0, 1.0
332,0.0228,0.132,3.45,0.132,3.45,0.5801544368959463,0.0,0.8145064943571336,-0.0,1.0,0.0,1.0,1.0,1.0, 1.0
333,0.0228,0.132,3.45,0.132,3.45,0.6101137842761686,0.0,0.7923138079297956,-0.0,1.0,0.0,1.0,1.0,1.0, 1.0
334,0.0228,0.132,3.45,0.132,3.45,0.6390950723029831,0.0,0.7691277452790563,-0.0,1.0,0.0,1.0,1.0,1.0, 1.0
335,0.0228,0.132,3.45,0.132,3.45,0.6670571025759126,0.0,0.7450065918520643,-0.0,1.0,0.0,1.0,1.0,1.0, 1.0
336,0.0228,0.132,3.45,0.132,3.45,0.6940026673375412,0.0,0.7199724284501303,-0.0,1.0,0.0,1.0,1.0,1.0, 1.0
337,0.0228,0.132,3.45,0.132,3.45,0.018397668630873085,0.0,0.9998307485714513,-0.0,1.0,0.0,1.0,1.0,1.0, 1.0
338,0.0228,0.132,3.45,0.132,3.45,0.05525973666105546,0.0,0.9984720133805206,-0.0,1.0,0.0,1.0,1.0,1.0, 1.0
339,0.0228,0.132,3.45,0.132,3.45,0.09217772938887223,0.0,0.9957425702483106,-0.0,1.0,0.0,1.0,1.0,1.0, 1.0
340,0.0228,0.132,3.45,0.132,3.45,0.1291080803172092,0.0,0.9916305277656619,-0.0,1.0,0.0,1.0,1.0,1.0, 1.0
341,0.0228,0.132,3.45,0.132,3.45,0.16599324523881584,0.0,0.9861268896724632,-0.0,1.0,0.0,1.0,1.0,1.0, 1.0
342,0.0228,0.132,3.45,0.132,3.45,0.20276698418831934,0.0,0.9792270166428078,-0.0,1.0,0.0,1.0,1.0,1.0, 1.0
343,0.0228,0.132,3.45,0.132,3.45,0.23936151585821824,0.0,0.9709305148804708,-0.0,1.0,0.0,1.0,1.0,1.0, 1.0
344,0.0228,0.132,3.45,0.132,3.45,0.2757051808041626,0.0,0.9612422448466069,-0.0,1.0,0.0,1.0,1.0,1.0, 1.0
345,0.0228,0.132,3.45,0.132,3.45,0.31172799518677363,0.0,0.950171382970901,-0.0,1.0,0.0,1.0,1.0,1.0, 1.0
346,0.0228,0.132,3.45,0.132,3.45,0.34735893632236986,0.0,0.9377322482228027,-0.0,1.0,0.0,1.0,1.0,1.0, 1.0
347,0.0228,0.132,3.45,0.132,3.45,0.38251781113334477,0.0,0.9239481176807249,-0.0,1.0,0.0,1.0,1.0,1.0, 1.0
348,0.0228,0.132,3.45,0.132,3.45,0.417134502829105,0.0,0.9088447648248381,-0.0,1.0,0.0,1.0,1.0,1.0, 1.0
349,0.0228,0.132,3.45,0.132,3.45,0.4511462831753101,0.0,0.8924500160665036,-0.0,1.0,0.0,1.0,1.0,1.0, 1.0
350,0.0228,0.132,3.45,0.132,3.45,0.48448169719447576,0.0,0.8748013975089204,-0.0,1.0,0.0,1.0,1.0,1.0, 1.0
351,0.0228,0.132,3.45,0.132,3.45,0.5170775502783816,0.0,0.8559385532841172,-0.0,1.0,0.0,1.0,1.0,1.0, 1.0
352,0.0228,0.132,3.45,0.132,3.45,0.5488665992721574,0.0,0.8359099569950204,-0.0,1.0,0.0,1.0,1.0,1.0, 1.0
353,0.0228,0.132,3.45,0.132,3.45,0.5797829181842133,0.0,0.8147709910040967,-0.0,1.0,0.0,1.0,1.0,1.0, 1.0
354,0.0228,0.132,3.45,0.132,3.45,0.6097839141680628,0.0,0.7925677119476143,-0.0,1.0,0.0,1.0,1.0,1.0, 1.0
355,0.0228,0.132,3.45,0.132,3.45,0.6388316812403271,0.0,0.769346529883418,-0.0,1.0,0.0,1.0,1.0,1.0, 1.0
356,0.0228,0.132,3.45,0.132,3.45,0.6668875867880163,0.0,0.7451583365889803,-0.0,1.0,0.0,1.0,1.0,1.0, 1.0
357,0.0228,0.132,3.45,0.132,3.45,0.6939445549464494,0.0,0.7200284401745353,-0.0,1.0,0.0,1.0,1.0,1.0, 1.0
358,0.0228,0.132,3.45,0.132,3.45,0.01844420222115843,0.0,0.9998298912337164,-0.0,1.0,0.0,1.0,1.0,1.0, 1.0
359,0.0228,0.132,3.45,0.132,3.45,0.05539013159371116,0.0,0.9984647882234161,-0.0,1.0,0.0,1.0,1.0,1.0, 1.0
360,0.0228,0.132,3.45,0.132,3.45,0.09237047147530476,0.0,0.9957247089429035,-0.0,1.0,0.0,1.0,1.0,1.0, 1.0
361,0.0228,0.132,3.45,0.132,3.45,0.12933541929789907,0.0,0.9916009022358929,-0.0,1.0,0.0,1.0,1.0,1.0, 1.0
362,0.0228,0.132,3.45,0.132,3.45,0.16622797480929136,0.0,0.9860873492702366,-0.0,1.0,0.0,1.0,1.0,1.0, 1.0
363,0.0228,0.132,3.45,0.132,3.45,0.20298198827235406,0.0,0.9791824714714831,-0.0,1.0,0.0,1.0,1.0,1.0, 1.0
364,0.0228,0.132,3.45,0.132,3.45,0.23953544453861583,0.0,0.9708876200723169,-0.0,1.0,0.0,1.0,1.0,1.0, 1.0
365,0.0228,0.132,3.45,0.132,3.45,0.2758247715215833,0.0,0.9612079355764113,-0.0,1.0,0.0,1.0,1.0,1.0, 1.0
366,0.0228,0.132,3.45,0.132,3.45,0.311781102366302,0.0,0.950153958160073,-0.0,1.0,0.0,1.0,1.0,1.0, 1.0
367,0.0228,0.132,3.45,0.132,3.45,0.3473360922392598,0.0,0.9377407099129056,-0.0,1.0,0.0,1.0,1.0,1.0, 1.0
368,0.0228,0.132,3.45,0.132,3.45,0.3824181565103759,0.0,0.9239893687544277,-0.0,1.0,0.0,1.0,1.0,1.0, 1.0
369,0.0228,0.132,3.45,0.132,3.45,0.41696480515225964,0.0,0.9089226321664228,-0.0,1.0,0.0,1.0,1.0,1.0, 1.0
370,0.0228,0.132,3.45,0.132,3.45,0.45091353055121003,0.0,0.8925676377540488,-0.0,1.0,0.0,1.0,1.0,1.0, 1.0
371,0.0228,0.132,3.45,0.132,3.45,0.4842019287490242,0.0,0.8749562801624576,-0.0,1.0,0.0,1.0,1.0,1.0, 1.0
372,0.0228,0.132,3.45,0.132,3.45,0.5167567706098365,0.0,0.856132256154908,-0.0,1.0,0.0,1.0,1.0,1.0, 1.0
373,0.0228,0.132,3.45,0.132,3.45,0.5485313276943662,0.0,0.8361300033713991,-0.0,1.0,0.0,1.0,1.0,1.0, 1.0
374,0.0228,0.132,3.45,0.132,3.45,0.5794666044878012,0.0,0.8149959842130378,-0.0,1.0,0.0,1.0,1.0,1.0, 1.0
375,0.0228,0.132,3.45,0.132,3.45,0.6095012449455,0.0,0.7927851111176885,-0.0,1.0,0.0,1.0,1.0,1.0, 1.0
376,0.0228,0.132,3.45,0.132,3.45,0.6385984139746144,0.0,0.7695401650785402,-0.0,1.0,0.0,1.0,1.0,1.0, 1.0
377,0.0228,0.132,3.45,0.132,3.45,0.6667337060801187,0.0,0.7452960251984911,-0.0,1.0,0.0,1.0,1.0,1.0, 1.0
378,0.0228,0.132,3.45,0.132,3.45,0.6938937372145394,0.0,0.7200774135149914,-0.0,1.0,0.0,1.0,1.0,1.0, 1.0
379,0.0228,0.132,3.45,0.132,3.45,0.018501985979141475,0.0,0.9998288236067351,-0.0,1.0,0.0,1.0,1.0,1.0, 1.0
380,0.0228,0.132,3.45,0.132,3.45,0.055550818648205186,0.0,0.9984558610912725,-0.0,1.0,0.0,1.0,1.0,1.0, 1.0
381,0.0228,0.132,3.45,0.132,3.45,0.09260810277616484,0.0,0.9957026359813451,-0.0,1.0,0.0,1.0,1.0,1.0, 1.0
382,0.0228,0.132,3.45,0.132,3.45,0.12961953733377704,0.0,0.9915638030612944,-0.0,1.0,0.0,1.0,1.0,1.0, 1.0
383,0.0228,0.132,3.45,0.132,3.45,0.16652776240224107,0.0,0.9860367662259367,-0.0,1.0,0.0,1.0,1.0,1.0, 1.0
384,0.0228,0.132,3.45,0.132,3.45,0.2032714158099875,0.0,0.9791224292776686,-0.0,1.0,0.0,1.0,1.0,1.0, 1.0
385,0.0228,0.132,3.45,0.132,3.45,0.23979114061868592,0.0,0.9708244995264539,-0.0,1.0,0.0,1.0,1.0,1.0, 1.0
386,0.0228,0.132,3.45,0.132,3.45,0.276029270050573,0.0,0.9611492298677391,-0.0,1.0,0.0,1.0,1.0,1.0, 1.0
387,0.0228,0.132,3.45,0.132,3.45,0.3119194301941309,0.0,0.9501085564646645,-0.0,1.0,0.0,1.0,1.0,1.0, 1.0
388,0.0228,0.132,3.45,0.132,3.45,0.3473999787098509,0.0,0.9377170440982691,-0.0,1.0,0.0,1.0,1.0,1.0, 1.0
389,0.0228,0.132,3.45,0.132,3.45,0.38240738402596797,0.0,0.9239938271668354,-0.0,1.0,0.0,1.0,1.0,1.0, 1.0
390,0.0228,0.132,3.45,0.132,3.45,0.4168824092748342,0.0,0.9089604264417729,-0.0,1.0,0.0,1.0,1.0,1.0, 1.0
391,0.0228,0.132,3.45,0.132,3.45,0.4507634386964009,0.0,0.892643446362878,-0.0,1.0,0.0,1.0,1.0,1.0, 1.0
392,0.0228,0.132,3.45,0.132,3.45,0.4839896285867831,0.0,0.8750737337050106,-0.0,1.0,0.0,1.0,1.0,1.0, 1.0
393,0.0228,0.132,3.45,0.132,3.45,0.5164996377917154,0.0,0.8562874074520931,-0.0,1.0,0.0,1.0,1.0,1.0, 1.0
394,0.0228,0.132,3.45,0.132,3.45,0.5482494587373915,0.0,0.8363148515924833,-0.0,1.0,0.0,1.0,1.0,1.0, 1.0
395,0.0228,0.132,3.45,0.132,3.45,0.579186313854076,0.0,0.8151951998411963,-0.0,1.0,0.0,1.0,1.0,1.0, 1.0
396,0.0228,0.132,3.45,0.132,3.45,0.6092554620251045,0.0,0.7929740109187541,-0.0,1.0,0.0,1.0,1.0,1.0, 1.0
397,0.0228,0.132,3.45,0.132,3.45,0.6384085904034122,0.0,0.7696976495346262,-0.0,1.0,0.0,1.0,1.0,1.0, 1.0
398,0.0228,0.132,3.45,0.132,3.45,0.6666110114017394,0.0,0.7454057683422836,-0.0,1.0,0.0,1.0,1.0,1.0, 1.0
399,0.0228,0.132,3.45,0.132,3.45,0.6938508812193066,0.0,0.7201187087079406,-0.0,1.0,0.0,1.0,1.0,1.0, 1.0
400,0.0228,0.132,3.45,0.132,3.45,0.018571686585467553,0.0,0.999827531355969,-0.0,1.0,0.0,1.0,1.0,1.0, 1.0
401,0.0228,0.132,3.45,0.132,3.45,0.055741084550546535,0.0,0.9984452571338746,-0.0,1.0,0.0,1.0,1.0,1.0, 1.0
402,0.0228,0.132,3.45,0.132,3.45,0.09288861920085623,0.0,0.99567650591091,-0.0,1.0,0.0,1.0,1.0,1.0, 1.0
403,0.0228,0.132,3.45,0.132,3.45,0.12995699270139477,0.0,0.9915196317007594,-0.0,1.0,0.0,1.0,1.0,1.0, 1.0
404,0.0228,0.132,3.45,0.132,3.45,0.1668883437937455,0.0,0.9859758012779931,-0.0,1.0,0.0,1.0,1.0,1.0, 1.0
405,0.0228,0.132,3.45,0.132,3.45,0.20362876466837412,0.0,0.9790481735847486,-0.0,1.0,0.0,1.0,1.0,1.0, 1.0
406,0.0228,0.132,3.45,0.132,3.45,0.24012127459037666,0.0,0.9707428977278654,-0.0,1.0,0.0,1.0,1.0,1.0, 1.0
407,0.0228,0.132,3.45,0.132,3.45,0.2763115247327258,0.0,0.9610681252127116,-0.0,1.0,0.0,1.0,1.0,1.0, 1.0
408,0.0228,0.132,3.45,0.132,3.45,0.3121381958136202,0.0,0.9500367080877551,-0.0,1.0,0.0,1.0,1.0,1.0, 1.0
409,0.0228,0.132,3.45,0.132,3.45,0.34754576491441497,0.0,0.9376630211808793,-0.0,1.0,0.0,1.0,1.0,1.0, 1.0
410,0.0228,0.132,3.45,0.132,3.45,0.3824770351160107,0.0,0.9239649980431434,-0.0,1.0,0.0,1.0,1.0,1.0, 1.0
411,0.0228,0.132,3.45,0.132,3.45,0.4168728004281833,0.0,0.9089648333478936,-0.0,1.0,0.0,1.0,1.0,1.0, 1.0
412,0.0228,0.132,3.45,0.132,3.45,0.45068119605260115,0.0,0.8926849721624068,-0.0,1.0,0.0,1.0,1.0,1.0, 1.0
413,0.0228,0.132,3.45,0.132,3.45,0.48384608469560386,0.0,0.8751531102182831,-0.0,1.0,0.0,1.0,1.0,1.0, 1.0
414,0.0228,0.132,3.45,0.132,3.45,0.5163138509229507,0.0,0.8563994438024308,-0.0,1.0,0.0,1.0,1.0,1.0, 1.0
415,0.0228,0.132,3.45,0.132,3.45,0.5480330190187528,0.0,0.8364566994562188,-0.0,1.0,0.0,1.0,1.0,1.0, 1.0
416,0.0228,0.132,3.45,0.132,3.45,0.578954331526609,0.0,0.8153599708144723,-0.0,1.0,0.0,1.0,1.0,1.0, 1.0
417,0.0228,0.132,3.45,0.132,3.45,0.609038030916762,0.0,0.7931410195526601,-0.0,1.0,0.0,1.0,1.0,1.0, 1.0
418,0.0228,0.132,3.45,0.132,3.45,0.6382362080129155,0.0,0.7698405956958195,-0.0,1.0,0.0,1.0,1.0,1.0, 1.0
419,0.0228,0.132,3.45,0.132,3.45,0.6665020627968796,0.0,0.7455031859673735,-0.0,1.0,0.0,1.0,1.0,1.0, 1.0
420,0.0228,0.132,3.45,0.132,3.45,0.6938137697764853,0.0,0.7201544645897447,-0.0,1.0,0.0,1.0,1.0,1.0, 1.0
421,0.0228,0.132,3.45,0.132,3.45,0.018654201429627672,0.0,0.9998259952456843,-0.0,1.0,0.0,1.0,1.0,1.0, 1.0
422,0.0228,0.132,3.45,0.132,3.45,0.055956839812846104,0.0,0.9984331885900827,-0.0,1.0,0.0,1.0,1.0,1.0, 1.0
423,0.0228,0.132,3.45,0.132,3.45,0.09320099551260486,0.0,0.9956473142812466,-0.0,1.0,0.0,1.0,1.0,1.0, 1.0
424,0.0228,0.132,3.45,0.132,3.45,0.13033109512342766,0.0,0.9914705268659921,-0.0,1.0,0.0,1.0,1.0,1.0, 1.0
425,0.0228,0.132,3.45,0.132,3.45,0.16729441903886308,0.0,0.9859069821024949,-0.0,1.0,0.0,1.0,1.0,1.0, 1.0
426,0.0228,0.132,3.45,0.132,3.45,0.2040381951150703,0.0,0.9789629282736833,-0.0,1.0,0.0,1.0,1.0,1.0, 1.0
427,0.0228,0.132,3.45,0.132,3.45,0.24050680649272932,0.0,0.9706474519776317,-0.0,1.0,0.0,1.0,1.0,1.0, 1.0
428,0.0228,0.132,3.45,0.132,3.45,0.2766523155880258,0.0,0.9609700808452797,-0.0,1.0,0.0,1.0,1.0,1.0, 1.0
429,0.0228,0.132,3.45,0.132,3.45,0.31242033938117336,0.0,0.9499439623161738,-0.0,1.0,0.0,1.0,1.0,1.0, 1.0
430,0.0228,0.132,3.45,0.132,3.45,0.347755591436521,0.0,0.9375852220596459,-0.0,1.0,0.0,1.0,1.0,1.0, 1.0
431,0.0228,0.132,3.45,0.132,3.45,0.3826067009309812,0.0,0.923911311978975,-0.0,1.0,0.0,1.0,1.0,1.0, 1.0
432,0.0228,0.132,3.45,0.132,3.45,0.4169227207840775,0.0,0.9089419370311848,-0.0,1.0,0.0,1.0,1.0,1.0, 1.0
433,0.0228,0.132,3.45,0.132,3.45,0.4506551656380314,0.0,0.8926981134088716,-0.0,1.0,0.0,1.0,1.0,1.0, 1.0
434,0.0228,0.132,3.45,0.132,3.45,0.4837567312448851,0.0,0.875202505123965,-0.0,1.0,0.0,1.0,1.0,1.0, 1.0
435,0.0228,0.132,3.45,0.132,3.45,0.516172854319177,0.0,0.8564844332876073,-0.0,1.0,0.0,1.0,1.0,1.0, 1.0
436,0.0228,0.132,3.45,0.132,3.45,0.547854975100983,0.0,0.8365733238976134,-0.0,1.0,0.0,1.0,1.0,1.0, 1.0
437,0.0228,0.132,3.45,0.132,3.45,0.5787621169035465,0.0,0.8154964206158881,-0.0,1.0,0.0,1.0,1.0,1.0, 1.0
438,0.0228,0.132,3.45,0.132,3.45,0.6088495195907874,0.0,0.7932857382394236,-0.0,1.0,0.0,1.0,1.0,1.0, 1.0
439,0.0228,0.132,3.45,0.132,3.45,0.6380788662327118,0.0,0.7699710127447505,-0.0,1.0,0.0,1.0,1.0,1.0, 1.0
440,0.0228,0.132,3.45,0.132,3.45,0.6663995131220184,0.0,0.745594855743209,-0.0,1.0,0.0,1.0,1.0,1.0, 1.0
441,0.0228,0.132,3.45,0.132,3.45,0.6937774212121054,0.0,0.7201894818839559,-0.0,1.0,0.0,1.0,1.0,1.0, 1.0
442,0.0228,0.132,3.45,0.132,3.45,0.020134383263893642,0.0,0.9997972827581513,-0.0,1.0,0.0,1.0,1.0,1.0, 1.0
443,0.0228,0.132,3.45,0.132,3.45,0.060434617944429364,0.0,0.998172157973719,-0.0,1.0,0.0,1.0,1.0,1.0, 1.0
444,0.0228,0.132,3.45,0.132,3.45,0.10074613901705655,0.0,0.994912164702571,-0.0,1.0,0.0,1.0,1.0,1.0, 1.0
445,0.0228,0.132,3.45,0.132,3.45,0.14102766180764015,0.0,0.9900056558449905,-0.0,1.0,0.0,1.0,1.0,1.0, 1.0
446,0.0228,0.132,3.45,0.132,3.45,0.1812028080394773,0.0,0.9834457495757498,-0.0,1.0,0.0,1.0,1.0,1.0, 1.0
447,0.0228,0.132,3.45,0.132,3.45,0.22116535884336105,0.0,0.9752363221536037,-0.0,1.0,0.0,1.0,1.0,1.0, 1.0
448,0.0228,0.132,3.45,0.132,3.45,0.26078315786664497,0.0,0.9653974024064392,-0.0,1.0,0.0,1.0,1.0,1.0, 1.0
449,0.0228,0.132,3.45,0.132,3.45,0.299919854784277,0.0,0.9539644022216857,-0.0,1.0,0.0,1.0,1.0,1.0, 1.0
450,0.0228,0.132,3.45,0.132,3.45,0.33843430203287395,0.0,0.9409900229054087,-0.0,1.0,0.0,1.0,1.0,1.0, 1.0
451,0.0228,0.132,3.45,0.132,3.45,0.37618598006000026,0.0,0.926544175097063,-0.0,1.0,0.0,1.0,1.0,1.0, 1.0
452,0.0228,0.132,3.45,0.132,3.45,0.413039032730515,0.0,0.9107133234124998,-0.0,1.0,0.0,1.0,1.0,1.0, 1.0
453,0.0228,0.132,3.45,0.132,3.45,0.44886925859260796,0.0,0.8935974421911258,-0.0,1.0,0.0,1.0,1.0,1.0, 1.0
454,0.0228,0.132,3.45,0.132,3.45,0.48355711646773386,0.0,0.8753128098647995,-0.0,1.0,0.0,1.0,1.0,1.0, 1.0
455,0.0228,0.132,3.45,0.132,3.45,0.5169821068395348,0.0,0.855996203968076,-0.0,1.0,0.0,1.0,1.0,1.0, 1.0
456,0.0228,0.132,3.45,0.132,3.45,0.5490126389382721,0.0,0.8358140476721089,-0.0,1.0,0.0,1.0,1.0,1.0, 1.0
457,0.0228,0.132,3.45,0.132,3.45,0.5795086745153374,0.0,0.8149660705584476,-0.0,1.0,0.0,1.0,1.0,1.0, 1.0
458,0.0228,0.132,3.45,0.132,3.45,0.6083167939305912,0.0,0.7936943229115393,-0.0,1.0,0.0,1.0,1.0,1.0, 1.0
459,0.0228,0.132,3.45,0.132,3.45,0.6352047580842808,0.0,0.7723437805194591,-0.0,1.0,0.0,1.0,1.0,1.0, 1.0
460,0.0228,0.132,3.45,0.132,3.45,0.6598053938305304,0.0,0.751436519123298,-0.0,1.0,0.0,1.0,1.0,1.0, 1.0
461,0.0228,0.132,3.45,0.132,3.45,0.6815164084405897,0.0,0.731802832070387,-0.0,1.0,0.0,1.0,1.0,1.0, 1.0
462,0.0228,0.132,3.45,0.132,3.45,0.6993503059356658,0.0,0.7147790914595158,-0.0,1.0,0.0,1.0,1.0,1.0, 1.0
463,0.0228,0.132,3.45,0.132,3.45,0.01952302218083904,0.0,0.9998094076397394,-0.0,1.0,0.0,1.0,1.0,1.0, 1.0
464,0.0228,0.132,3.45,0.132,3.45,0.05861394509735357,0.0,0.9982807247663978,-0.0,1.0,0.0,1.0,1.0,1.0, 1.0
465,0.0228,0.132,3.45,0.132,3.45,0.09775558366588676,0.0,0.995210453051083,-0.0,1.0,0.0,1.0,1.0,1.0, 1.0
466,0.0228,0.132,3.45,0.132,3.45,0.1369248541838203,0.0,0.9905814374935256,-0.0,1.0,0.0,1.0,1.0,1.0, 1.0
467,0.0228,0.132,3.45,0.132,3.45,0.17606154025581358,0.0,0.9843791617272029,-0.0,1.0,0.0,1.0,1.0,1.0, 1.0
468,0.0228,0.132,3.45,0.132,3.45,0.21507394424003626,0.0,0.9765977669998195,-0.0,1.0,0.0,1.0,1.0,1.0, 1.0
469,0.0228,0.132,3.45,0.132,3.45,0.2538441336803866,0.0,0.9672451373855824,-0.0,1.0,0.0,1.0,1.0,1.0, 1.0
470,0.0228,0.132,3.45,0.132,3.45,0.2922468367044232,0.0,0.9563429230334997,-0.0,1.0,0.0,1.0,1.0,1.0, 1.0
471,0.0228,0.132,3.45,0.132,3.45,0.33014301786316175,0.0,0.9439309231909949,-0.0,1.0,0.0,1.0,1.0,1.0, 1.0
472,0.0228,0.132,3.45,0.132,3.45,0.36739907792180454,0.0,0.9300633943673989,-0.0,1.0,0.0,1.0,1.0,1.0, 1.0
473,0.0228,0.132,3.45,0.132,3.45,0.40388440564990835,0.0,0.9148100277504726,-0.0,1.0,0.0,1.0,1.0,1.0, 1.0
474,0.0228,0.132,3.45,0.132,3.45,0.4394647155905553,0.0,0.8982598531332192,-0.0,1.0,0.0,1.0,1.0,1.0, 1.0
475,0.0228,0.132,3.45,0.132,3.45,0.47401807249655503,0.0,0.8805151145475305,-0.0,1.0,0.0,1.0,1.0,1.0, 1.0
476,0.0228,0.132,3.45,0.132,3.45,0.5074190924517816,0.0,0.861699405022082,-0.0,1.0,0.0,1.0,1.0,1.0, 1.0
477,0.0228,0.132,3.45,0.132,3.45,0.5395410522954714,0.0,0.8419592940801208,-0.0,1.0,0.0,1.0,1.0,1.0, 1.0
478,0.0228,0.132,3.45,0.132,3.45,0.570257693175809,0.0,0.8214658625736099,-0.0,1.0,0.0,1.0,1.0,1.0, 1.0
479,0.0228,0.132,3.45,0.132,3.45,0.5994351962590215,0.0,0.8004232914439137,-0.0,1.0,0.0,1.0,1.0,1.0, 1.0
480,0.0228,0.132,3.45,0.132,3.45,0.6269063931244848,0.0,0.7790945862086637,-0.0,1.0,0.0,1.0,1.0,1.0, 1.0
481,0.0228,0.132,3.45,0.132,3.45,0.6524629116754634,0.0,0.757820657469811,-0.0,1.0,0.0,1.0,1.0,1.0, 1.0
482,0.0228,0.132,3.45,0.132,3.45,0.6758874824796729,0.0,0.7370048242903773,-0.0,1.0,0.0,1.0,1.0,1.0, 1.0
483,0.0228,0.132,3.45,0.132,3.45,0.6971061410202989,0.0,0.7169679408117124,-0.0,1.0,0.0,1.0,1.0,1.0, 1.0
484,0.0228,0.132,3.45,0.132,3.45,0.019130274980870637,0.0,0.9998169995449947,-0.0,1.0,0.0,1.0,1.0,1.0, 1.0
485,0.0228,0.132,3.45,0.132,3.45,0.057447323082607464,0.0,0.9983485388733949,-0.0,1.0,0.0,1.0,1.0,1.0, 1.0
486,0.0228,0.132,3.45,0.132,3.45,0.09583917477806052,0.0,0.9953968317097761,-0.0,1.0,0.0,1.0,1.0,1.0, 1.0
487,0.0228,0.132,3.45,0.132,3.45,0.13429194224568838,0.0,0.9909418117366331,-0.0,1.0,0.0,1.0,1.0,1.0, 1.0
488,0.0228,0.132,3.45,0.132,3.45,0.17275647105561523,0.0,0.9849645687578871,-0.0,1.0,0.0,1.0,1.0,1.0, 1.0
489,0.0228,0.132,3.45,0.132,3.45,0.2111495407492076,0.0,0.9774537694650314,-0.0,1.0,0.0,1.0,1.0,1.0, 1.0
490,0.0228,0.132,3.45,0.132,3.45,0.24936429750875913,0.0,0.9684097516691801,-0.0,1.0,0.0,1.0,1.0,1.0, 1.0
491,0.0228,0.132,3.45,0.132,3.45,0.28727873717118874,0.0,0.9578470270190993,-0.0,1.0,0.0,1.0,1.0,1.0, 1.0
492,0.0228,0.132,3.45,0.132,3.45,0.324758266615667,0.0,0.9457970544809218,-0.0,1.0,0.0,1.0,1.0,1.0, 1.0
493,0.0228,0.132,3.45,0.132,3.45,0.36168078883147803,0.0,0.932301993449676,-0.0,1.0,0.0,1.0,1.0,1.0, 1.0
494,0.0228,0.132,3.45,0.132,3.45,0.39791847141491093,0.0,0.9174207813794174,-0.0,1.0,0.0,1.0,1.0,1.0, 1.0
495,0.0228,0.132,3.45,0.132,3.45,0.4333302198926924,0.0,0.9012352193116682,-0.0,1.0,0.0,1.0,1.0,1.0, 1.0
496,0.0228,0.132,3.45,0.132,3.45,0.4677934753690547,0.0,0.8838378043522135,-0.0,1.0,0.0,1.0,1.0,1.0, 1.0
497,0.0228,0.132,3.45,0.132,3.45,0.5011879326989477,0.0,0.8653384633292079,-0.0,1.0,0.0,1.0,1.0,1.0, 1.0
498,0.0228,0.132,3.45,0.132,3.45,0.5334014108489694,0.0,0.8458622434559478,-0.0,1.0,0.0,1.0,1.0,1.0, 1.0
499,0.0228,0.132,3.45,0.132,3.45,0.5643211795914909,0.0,0.8255553320429033,-0.0,1.0,0.0,1.0,1.0,1.0, 1.0
500,0.0228,0.132,3.45,0.132,3.45,0.5938245842038653,0.0,0.8045945334111501,-0.0,1.0,0.0,1.0,1.0,1.0, 1.0
501,0.0228,0.132,3.45,0.132,3.45,0.621797724057937,0.0,0.7831778791285985,-0.0,1.0,0.0,1.0,1.0,1.0, 1.0
502,0.0228,0.132,3.45,0.132,3.45,0.6481424275295518,0.0,0.7615191354365954,-0.0,1.0,0.0,1.0,1.0,1.0, 1.0
503,0.0228,0.132,3.45,0.132,3.45,0.6728254425678781,0.0,0.7398012732033777,-0.0,1.0,0.0,1.0,1.0,1.0, 1.0
504,0.0228,0.132,3.45,0.132,3.45,0.6959722793892295,0.0,0.7180686501454862,-0.0,1.0,0.0,1.0,1.0,1.0, 1.0
505,0.0228,0.132,3.45,0.132,3.45,0.018876583500772134,0.0,0.9998218214238667,-0.0,1.0,0.0,1.0,1.0,1.0, 1.0
506,0.0228,0.132,3.45,0.132,3.45,0.0566972501631307,0.0,0.9983914171425651,-0.0,1.0,0.0,1.0,1.0,1.0, 1.0
507,0.0228,0.132,3.45,0.132,3.45,0.09460768555397694,0.0,0.9955146336614645,-0.0,1.0,0.0,1.0,1.0,1.0, 1.0
508,0.0228,0.132,3.45,0.132,3.45,0.13259799384086157,0.0,0.9911699006877573,-0.0,1.0,0.0,1.0,1.0,1.0, 1.0
509,0.0228,0.132,3.45,0.132,3.45,0.1706274844217402,0.0,0.9853356085922749,-0.0,1.0,0.0,1.0,1.0,1.0, 1.0
510,0.0228,0.132,3.45,0.132,3.45,0.20861425645019518,0.0,0.9779980020458796,-0.0,1.0,0.0,1.0,1.0,1.0, 1.0
511,0.0228,0.132,3.45,0.132,3.45,0.24645524955531922,0.0,0.9691541724445215,-0.0,1.0,0.0,1.0,1.0,1.0, 1.0
512,0.0228,0.132,3.45,0.132,3.45,0.2840428738225245,0.0,0.9588115799418786,-0.0,1.0,0.0,1.0,1.0,1.0, 1.0
513,0.0228,0.132,3.45,0.132,3.45,0.321246913366024,0.0,0.946995470238798,-0.0,1.0,0.0,1.0,1.0,1.0, 1.0
514,0.0228,0.132,3.45,0.132,3.45,0.35794340980395106,0.0,0.9337432813026935,-0.0,1.0,0.0,1.0,1.0,1.0, 1.0
515,0.0228,0.132,3.45,0.132,3.45,0.3940063331535367,0.0,0.9191077246084403,-0.0,1.0,0.0,1.0,1.0,1.0, 1.0
516,0.0228,0.132,3.45,0.132,3.45,0.42930094013773673,0.0,0.9031615042708891,-0.0,1.0,0.0,1.0,1.0,1.0, 1.0
517,0.0228,0.132,3.45,0.132,3.45,0.4637119286884156,0.0,0.8859860310366467,-0.0,1.0,0.0,1.0,1.0,1.0, 1.0
518,0.0228,0.132,3.45,0.132,3.45,0.49712157488879244,0.0,0.8676808974387341,-0.0,1.0,0.0,1.0,1.0,1.0, 1.0
519,0.0228,0.132,3.45,0.132,3.45,0.5294257499725556,0.0,0.8483562784974229,-0.0,1.0,0.0,1.0,1.0,1.0, 1.0
520,0.0228,0.132,3.45,0.132,3.45,0.5605145561605188,0.0,0.8281445721202166,-0.0,1.0,0.0,1.0,1.0,1.0, 1.0
521,0.0228,0.132,3.45,0.132,3.45,0.590284482608983,0.0,0.807195285907348,-0.0,1.0,0.0,1.0,1.0,1.0, 1.0
522,0.0228,0.132,3.45,0.132,3.45,0.618664056725529,0.0,0.7856556401604404,-0.0,1.0,0.0,1.0,1.0,1.0, 1.0
523,0.0228,0.132,3.45,0.132,3.45,0.6456007803177934,0.0,0.7636750830379739,-0.0,1.0,0.0,1.0,1.0,1.0, 1.0
524,0.0228,0.132,3.45,0.132,3.45,0.671122427726199,0.0,0.7413465363801822,-0.0,1.0,0.0,1.0,1.0,1.0, 1.0
525,0.0228,0.132,3.45,0.132,3.45,0.6953706896314982,0.0,0.7186512394767121,-0.0,1.0,0.0,1.0,1.0,1.0, 1.0
526,0.0228,0.132,3.45,0.132,3.45,0.018706067927100906,0.0,0.9998250262034387,-0.0,1.0,0.0,1.0,1.0,1.0, 1.0
527,0.0228,0.132,3.45,0.132,3.45,0.056195092358721443,0.0,0.9984198072929016,-0.0,1.0,0.0,1.0,1.0,1.0, 1.0
528,0.0228,0.132,3.45,0.132,3.45,0.09378488007257944,0.0,0.9955924850408282,-0.0,1.0,0.0,1.0,1.0,1.0, 1.0
529,0.0228,0.132,3.45,0.132,3.45,0.13146580333491634,0.0,0.9913207062063745,-0.0,1.0,0.0,1.0,1.0,1.0, 1.0
530,0.0228,0.132,3.45,0.132,3.45,0.16919901473663065,0.0,0.9855819059886161,-0.0,1.0,0.0,1.0,1.0,1.0, 1.0
531,0.0228,0.132,3.45,0.132,3.45,0.20690575413781934,0.0,0.9783608786662825,-0.0,1.0,0.0,1.0,1.0,1.0, 1.0
532,0.0228,0.132,3.45,0.132,3.45,0.24448894161260507,0.0,0.9696520806088894,-0.0,1.0,0.0,1.0,1.0,1.0, 1.0
533,0.0228,0.132,3.45,0.132,3.45,0.28184498246558215,0.0,0.9594599553180818,-0.0,1.0,0.0,1.0,1.0,1.0, 1.0
534,0.0228,0.132,3.45,0.132,3.45,0.31885135116258323,0.0,0.9478047350914612,-0.0,1.0,0.0,1.0,1.0,1.0, 1.0
535,0.0228,0.132,3.45,0.132,3.45,0.35538445503567606,0.0,0.9347202197015937,-0.0,1.0,0.0,1.0,1.0,1.0, 1.0
536,0.0228,0.132,3.45,0.132,3.45,0.391322204527328,0.0,0.9202537325346049,-0.0,1.0,0.0,1.0,1.0,1.0, 1.0
537,0.0228,0.132,3.45,0.132,3.45,0.42654063180753843,0.0,0.9044684015581893,-0.0,1.0,0.0,1.0,1.0,1.0, 1.0
538,0.0228,0.132,3.45,0.132,3.45,0.46092285613156053,0.0,0.8874402068283388,-0.0,1.0,0.0,1.0,1.0,1.0, 1.0
539,0.0228,0.132,3.45,0.132,3.45,0.49435360094429476,0.0,0.8692609028556437,-0.0,1.0,0.0,1.0,1.0,1.0, 1.0
540,0.0228,0.132,3.45,0.132,3.45,0.5267258167129559,0.0,0.8500352428035378,-0.0,1.0,0.0,1.0,1.0,1.0, 1.0
541,0.0228,0.132,3.45,0.132,3.45,0.5579536906083934,0.0,0.8298720860087254,-0.0,1.0,0.0,1.0,1.0,1.0, 1.0
542,0.0228,0.132,3.45,0.132,3.45,0.5879504073543406,0.0,0.80889697643882,-0.0,1.0,0.0,1.0,1.0,1.0, 1.0
543,0.0228,0.132,3.45,0.132,3.45,0.6166473944980795,0.0,0.7872394749113703,-0.0,1.0,0.0,1.0,1.0,1.0, 1.0
544,0.0228,0.132,3.45,0.132,3.45,0.6440201646018127,0.0,0.7650085147148717,-0.0,1.0,0.0,1.0,1.0,1.0, 1.0
545,0.0228,0.132,3.45,0.132,3.45,0.6701030927835051,0.0,0.7422680412371133,-0.0,1.0,0.0,1.0,1.0,1.0, 1.0
546,0.0228,0.132,3.45,0.132,3.45,0.6950192668182882,0.0,0.7189911117332183,-0.0,1.0,0.0,1.0,1.0,1.0, 1.0
547,0.0228,0.132,3.45,0.132,3.45,0.018585855632117412,0.0,0.9998272680670507,-0.0,1.0,0.0,1.0,1.0,1.0, 1.0
548,0.0228,0.132,3.45,0.132,3.45,0.05584342070106576,0.0,0.9984395386624088,-0.0,1.0,0.0,1.0,1.0,1.0, 1.0
549,0.0228,0.132,3.45,0.132,3.45,0.09321014066084575,0.0,0.9956464581757852,-0.0,1.0,0.0,1.0,1.0,1.0, 1.0
550,0.0228,0.132,3.45,0.132,3.45,0.1306749933478886,0.0,0.9914252599735037,-0.0,1.0,0.0,1.0,1.0,1.0, 1.0
551,0.0228,0.132,3.45,0.132,3.45,0.16819555837585715,0.0,0.9857536477957531,-0.0,1.0,0.0,1.0,1.0,1.0, 1.0
552,0.0228,0.132,3.45,0.132,3.45,0.20569821165307134,0.0,0.9786154738827342,-0.0,1.0,0.0,1.0,1.0,1.0, 1.0
553,0.0228,0.132,3.45,0.132,3.45,0.24309477570478918,0.0,0.9700025412466908,-0.0,1.0,0.0,1.0,1.0,1.0, 1.0
554,0.0228,0.132,3.45,0.132,3.45,0.2802784092630542,0.0,0.9599187534895711,-0.0,1.0,0.0,1.0,1.0,1.0, 1.0
555,0.0228,0.132,3.45,0.132,3.45,0.31713209257559744,0.0,0.9483813767987131,-0.0,1.0,0.0,1.0,1.0,1.0, 1.0
556,0.0228,0.132,3.45,0.132,3.45,0.3535402719273161,0.0,0.9354193049780187,-0.0,1.0,0.0,1.0,1.0,1.0, 1.0
557,0.0228,0.132,3.45,0.132,3.45,0.38938256688267703,0.0,0.9210761187914154,-0.0,1.0,0.0,1.0,1.0,1.0, 1.0
558,0.0228,0.132,3.45,0.132,3.45,0.4245408731331297,0.0,0.9054087734495175,-0.0,1.0,0.0,1.0,1.0,1.0, 1.0
559,0.0228,0.132,3.45,0.132,3.45,0.4588995628231616,0.0,0.8884881491841695,-0.0,1.0,0.0,1.0,1.0,1.0, 1.0
560,0.0228,0.132,3.45,0.132,3.45,0.49235428349021043,0.0,0.870394887122415,-0.0,1.0,0.0,1.0,1.0,1.0, 1.0
561,0.0228,0.132,3.45,0.132,3.45,0.5247948520650076,0.0,0.8512287373239149,-0.0,1.0,0.0,1.0,1.0,1.0, 1.0
562,0.0228,0.132,3.45,0.132,3.45,0.5561398893579664,0.0,0.8310886977121689,-0.0,1.0,0.0,1.0,1.0,1.0, 1.0
563,0.0228,0.132,3.45,0.132,3.45,0.5863144354499583,0.0,0.8100835653085405,-0.0,1.0,0.0,1.0,1.0,1.0, 1.0
564,0.0228,0.132,3.45,0.132,3.45,0.6152594528389116,0.0,0.7883246829145737,-0.0,1.0,0.0,1.0,1.0,1.0, 1.0
565,0.0228,0.132,3.45,0.132,3.45,0.6429569224983663,0.0,0.7659023409100079,-0.0,1.0,0.0,1.0,1.0,1.0, 1.0
566,0.0228,0.132,3.45,0.132,3.45,0.6694306310011248,0.0,0.7428745723723731,-0.0,1.0,0.0,1.0,1.0,1.0, 1.0
567,0.0228,0.132,3.45,0.132,3.45,0.6947906453703577,0.0,0.7192120404344199,-0.0,1.0,0.0,1.0,1.0,1.0, 1.0
568,0.0228,0.132,3.45,0.132,3.45,0.01849763267228919,0.0,0.9998289041558667,-0.0,1.0,0.0,1.0,1.0,1.0, 1.0
569,0.0228,0.132,3.45,0.132,3.45,0.055588202749698314,0.0,0.9984537804600964,-0.0,1.0,0.0,1.0,1.0,1.0, 1.0
570,0.0228,0.132,3.45,0.132,3.45,0.09279347353784208,0.0,0.9956853776513852,-0.0,1.0,0.0,1.0,1.0,1.0, 1.0
571,0.0228,0.132,3.45,0.132,3.45,0.13009897463207956,0.0,0.99150101200134,-0.0,1.0,0.0,1.0,1.0,1.0, 1.0
572,0.0228,0.132,3.45,0.132,3.45,0.16746126767624123,0.0,0.9858786557321677,-0.0,1.0,0.0,1.0,1.0,1.0, 1.0
573,0.0228,0.132,3.45,0.132,3.45,0.20481021271724534,0.0,0.9788017045176804,-0.0,1.0,0.0,1.0,1.0,1.0, 1.0
574,0.0228,0.132,3.45,0.132,3.45,0.242059327819199,0.0,0.9702614502368512,-0.0,1.0,0.0,1.0,1.0,1.0, 1.0
575,0.0228,0.132,3.45,0.132,3.45,0.27910669944909666,0.0,0.960260095142265,-0.0,1.0,0.0,1.0,1.0,1.0, 1.0
576,0.0228,0.132,3.45,0.132,3.45,0.3158385944226513,0.0,0.9488129332345359,-0.0,1.0,0.0,1.0,1.0,1.0, 1.0
577,0.0228,0.132,3.45,0.132,3.45,0.35214341647368375,0.0,0.9359460530576759,-0.0,1.0,0.0,1.0,1.0,1.0, 1.0
578,0.0228,0.132,3.45,0.132,3.45,0.38790442341700726,0.0,0.9216996030668121,-0.0,1.0,0.0,1.0,1.0,1.0, 1.0
579,0.0228,0.132,3.45,0.132,3.45,0.4230114240820055,0.0,0.9061243485836332,-0.0,1.0,0.0,1.0,1.0,1.0, 1.0
580,0.0228,0.132,3.45,0.132,3.45,0.4573519265340497,0.0,0.8892857894375651,-0.0,1.0,0.0,1.0,1.0,1.0, 1.0
581,0.0228,0.132,3.45,0.132,3.45,0.49082148710739426,0.0,0.8712601607979592,-0.0,1.0,0.0,1.0,1.0,1.0, 1.0
582,0.0228,0.132,3.45,0.132,3.45,0.52332711183953,0.0,0.85213187595213,-0.0,1.0,0.0,1.0,1.0,1.0, 1.0
583,0.0228,0.132,3.45,0.132,3.45,0.5547752890287466,0.0,0.8320002275739297,-0.0,1.0,0.0,1.0,1.0,1.0, 1.0
584,0.0228,0.132,3.45,0.132,3.45,0.5850911354678746,0.0,0.8109675475608831,-0.0,1.0,0.0,1.0,1.0,1.0, 1.0
585,0.0228,0.132,3.45,0.132,3.45,0.6142317255748335,0.0,0.7891257107060715,-0.0,1.0,0.0,1.0,1.0,1.0, 1.0
586,0.0228,0.132,3.45,0.132,3.45,0.6421752917186951,0.0,0.7665578221543426,-0.0,1.0,0.0,1.0,1.0,1.0, 1.0
587,0.0228,0.132,3.45,0.132,3.45,0.6689461277365927,0.0,0.7433108893230466,-0.0,1.0,0.0,1.0,1.0,1.0, 1.0
588,0.0228,0.132,3.45,0.132,3.45,0.6946308946049503,0.0,0.719366332448445,-0.0,1.0,0.0,1.0,1.0,1.0, 1.0
589,0.0228,0.132,3.45,0.132,3.45,0.018431848878161586,0.0,0.9998301190436967,-0.0,1.0,0.0,1.0,1.0,1.0, 1.0
590,0.0228,0.132,3.45,0.132,3.45,0.05539881683489264,0.0,0.9984643063691832,-0.0,1.0,0.0,1.0,1.0,1.0, 1.0
591,0.0228,0.132,3.45,0.132,3.45,0.09248433378223012,0.0,0.9957141397031867,-0.0,1.0,0.0,1.0,1.0,1.0, 1.0
592,0.0228,0.132,3.45,0.132,3.45,0.12966842183638608,0.0,0.991557411539272,-0.0,1.0,0.0,1.0,1.0,1.0, 1.0
593,0.0228,0.132,3.45,0.132,3.45,0.16690764130461566,0.0,0.9859725347463436,-0.0,1.0,0.0,1.0,1.0,1.0, 1.0
594,0.0228,0.132,3.45,0.132,3.45,0.20413460119691565,0.0,0.9789428300948816,-0.0,1.0,0.0,1.0,1.0,1.0, 1.0
595,0.0228,0.132,3.45,0.132,3.45,0.24126175730892777,0.0,0.97046007875657,-0.0,1.0,0.0,1.0,1.0,1.0, 1.0
596,0.0228,0.132,3.45,0.132,3.45,0.2781918589452404,0.0,0.9605255278318173,-0.0,1.0,0.0,1.0,1.0,1.0, 1.0
597,0.0228,0.132,3.45,0.132,3.45,0.3148183657088584,0.0,0.9491519354731377,-0.0,1.0,0.0,1.0,1.0,1.0, 1.0
598,0.0228,0.132,3.45,0.132,3.45,0.3510342255983441,0.0,0.9363626287174062,-0.0,1.0,0.0,1.0,1.0,1.0, 1.0
599,0.0228,0.132,3.45,0.132,3.45,0.38672815508492425,0.0,0.9221937616708382,-0.0,1.0,0.0,1.0,1.0,1.0, 1.0
600,0.0228,0.132,3.45,0.132,3.45,0.42179204546243776,0.0,0.9066925997186769,-0.0,1.0,0.0,1.0,1.0,1.0, 1.0
601,0.0228,0.132,3.45,0.132,3.45,0.4561151024351632,0.0,0.8899207904811307,-0.0,1.0,0.0,1.0,1.0,1.0, 1.0
602,0.0228,0.132,3.45,0.132,3.45,0.4895940584698221,0.0,0.8719504905159743,-0.0,1.0,0.0,1.0,1.0,1.0, 1.0
603,0.0228,0.132,3.45,0.132,3.45,0.5221407805044613,0.0,0.8528593115714875,-0.0,1.0,0.0,1.0,1.0,1.0, 1.0
604,0.0228,0.132,3.45,0.132,3.45,0.5536731261160569,0.0,0.8327340928633059,-0.0,1.0,0.0,1.0,1.0,1.0, 1.0
605,0.0228,0.132,3.45,0.132,3.45,0.5841147599684134,0.0,0.8116710831285312,-0.0,1.0,0.0,1.0,1.0,1.0, 1.0
606,0.0228,0.132,3.45,0.132,3.45,0.6134164274347373,0.0,0.7897596384680617,-0.0,1.0,0.0,1.0,1.0,1.0, 1.0
607,0.0228,0.132,3.45,0.132,3.45,0.641562085575421,0.0,0.7670711116657414,-0.0,1.0,0.0,1.0,1.0,1.0, 1.0
608,0.0228,0.132,3.45,0.132,3.45,0.6685713441640405,0.0,0.7436480066285986,-0.0,1.0,0.0,1.0,1.0,1.0, 1.0
609,0.0228,0.132,3.45,0.132,3.45,0.69450779035632,0.0,0.7194851834015636,-0.0,1.0,0.0,1.0,1.0,1.0, 1.0
610,0.0228,0.132,3.45,0.132,3.45,0.01838237007344525,0.0,0.9998310299598041,-0.0,1.0,0.0,1.0,1.0,1.0, 1.0
611,0.0228,0.132,3.45,0.132,3.45,0.05525779555896233,0.0,0.9984721208075686,-0.0,1.0,0.0,1.0,1.0,1.0, 1.0
612,0.0228,0.132,3.45,0.132,3.45,0.09225481770516347,0.0,0.9957354310308473,-0.0,1.0,0.0,1.0,1.0,1.0, 1.0
613,0.0228,0.132,3.45,0.132,3.45,0.12934613467496772,0.0,0.9915995045605082,-0.0,1.0,0.0,1.0,1.0,1.0, 1.0
614,0.0228,0.132,3.45,0.132,3.45,0.1664865582092684,0.0,0.9860437241500156,-0.0,1.0,0.0,1.0,1.0,1.0, 1.0
615,0.0228,0.132,3.45,0.132,3.45,0.20361193255497861,0.0,0.9790516742854928,-0.0,1.0,0.0,1.0,1.0,1.0, 1.0
616,0.0228,0.132,3.45,0.132,3.45,0.24063612412247926,0.0,0.9706154005409717,-0.0,1.0,0.0,1.0,1.0,1.0, 1.0
617,0.0228,0.132,3.45,0.132,3.45,0.27746508900837996,0.0,0.9607357203630829,-0.0,1.0,0.0,1.0,1.0,1.0, 1.0
618,0.0228,0.132,3.45,0.132,3.45,0.31399871310901123,0.0,0.9494234082672941,-0.0,1.0,0.0,1.0,1.0,1.0, 1.0
619,0.0228,0.132,3.45,0.132,3.45,0.35013522184168977,0.0,0.9366991653812181,-0.0,1.0,0.0,1.0,1.0,1.0, 1.0
620,0.0228,0.132,3.45,0.132,3.45,0.3857635779181786,0.0,0.9225976706841208,-0.0,1.0,0.0,1.0,1.0,1.0, 1.0
621,0.0228,0.132,3.45,0.132,3.45,0.4207793906906327,0.0,0.9071629976856528,-0.0,1.0,0.0,1.0,1.0,1.0, 1.0
622,0.0228,0.132,3.45,0.132,3.45,0.45508274645300334,0.0,0.89044915288903,-0.0,1.0,0.0,1.0,1.0,1.0, 1.0
623,0.0228,0.132,3.45,0.132,3.45,0.48857159226378477,0.0,0.8725238101237296,-0.0,1.0,0.0,1.0,1.0,1.0, 1.0
624,0.0228,0.132,3.45,0.132,3.45,0.52115350929097,0.0,0.85346295745844,-0.0,1.0,0.0,1.0,1.0,1.0, 1.0
625,0.0228,0.132,3.45,0.132,3.45,0.5527490856518332,0.0,0.83334773552885,-0.0,1.0,0.0,1.0,1.0,1.0, 1.0
626,0.0228,0.132,3.45,0.132,3.45,0.5832923800008746,0.0,0.8122622725652812,-0.0,1.0,0.0,1.0,1.0,1.0, 1.0
627,0.0228,0.132,3.45,0.132,3.45,0.6127319472902261,0.0,0.7902908077220233,-0.0,1.0,0.0,1.0,1.0,1.0, 1.0
628,0.0228,0.132,3.45,0.132,3.45,0.6410498925408689,0.0,0.7674992086467194,-0.0,1.0,0.0,1.0,1.0,1.0, 1.0
629,0.0228,0.132,3.45,0.132,3.45,0.6682581090630739,0.0,0.7439294991270642,-0.0,1.0,0.0,1.0,1.0,1.0, 1.0
630,0.0228,0.132,3.45,0.132,3.45,0.694403580418475,0.0,0.7195857610472867,-0.0,1.0,0.0,1.0,1.0,1.0, 1.0
631,0.0228,0.132,3.45,0.132,3.45,0.01834598655673695,0.0,0.9998316982258865,-0.0,1.0,0.0,1.0,1.0,1.0, 1.0
632,0.0228,0.132,3.45,0.132,3.45,0.0551551206181621,0.0,0.9984777977850062,-0.0,1.0,0.0,1.0,1.0,1.0, 1.0
633,0.0228,0.132,3.45,0.132,3.45,0.09208590643715088,0.0,0.9957510661985998,-0.0,1.0,0.0,1.0,1.0,1.0, 1.0
634,0.0228,0.132,3.45,0.132,3.45,0.12910713668205917,0.0,0.9916306506243945,-0.0,1.0,0.0,1.0,1.0,1.0, 1.0
635,0.0228,0.132,3.45,0.132,3.45,0.1661681586219056,0.0,0.9860974308151326,-0.0,1.0,0.0,1.0,1.0,1.0, 1.0
636,0.0228,0.132,3.45,0.132,3.45,0.20320650650539124,0.0,0.979135902576284,-0.0,1.0,0.0,1.0,1.0,1.0, 1.0
637,0.0228,0.132,3.45,0.132,3.45,0.24014356616664562,0.0,0.9707373834507281,-0.0,1.0,0.0,1.0,1.0,1.0, 1.0
638,0.0228,0.132,3.45,0.132,3.45,0.27688295866099244,0.0,0.9609036513632025,-0.0,1.0,0.0,1.0,1.0,1.0, 1.0
639,0.0228,0.132,3.45,0.132,3.45,0.31333354330045143,0.0,0.9496431385751093,-0.0,1.0,0.0,1.0,1.0,1.0, 1.0
640,0.0228,0.132,3.45,0.132,3.45,0.34939486565875294,0.0,0.9369755748424299,-0.0,1.0,0.0,1.0,1.0,1.0, 1.0
641,0.0228,0.132,3.45,0.132,3.45,0.38495671999124553,0.0,0.9229346259262254,-0.0,1.0,0.0,1.0,1.0,1.0, 1.0
642,0.0228,0.132,3.45,0.132,3.45,0.41992445104682025,0.0,0.9075590644211684,-0.0,1.0,0.0,1.0,1.0,1.0, 1.0
643,0.0228,0.132,3.45,0.132,3.45,0.45420024746026977,0.0,0.8908996212857146,-0.0,1.0,0.0,1.0,1.0,1.0, 1.0
644,0.0228,0.132,3.45,0.132,3.45,0.4876893920947673,0.0,0.8730172145142593,-0.0,1.0,0.0,1.0,1.0,1.0, 1.0
645,0.0228,0.132,3.45,0.132,3.45,0.5203018120541811,0.0,0.8539824496868398,-0.0,1.0,0.0,1.0,1.0,1.0, 1.0
646,0.0228,0.132,3.45,0.132,3.45,0.5519553923948137,0.0,0.8338736383927046,-0.0,1.0,0.0,1.0,1.0,1.0, 1.0
647,0.0228,0.132,3.45,0.132,3.45,0.582591591157384,0.0,0.8127650570199899,-0.0,1.0,0.0,1.0,1.0,1.0, 1.0
648,0.0228,0.132,3.45,0.132,3.45,0.6121510072132863,0.0,0.79074088320243,-0.0,1.0,0.0,1.0,1.0,1.0, 1.0
649,0.0228,0.132,3.45,0.132,3.45,0.6406136784603377,0.0,0.7678633439418209,-0.0,1.0,0.0,1.0,1.0,1.0, 1.0
650,0.0228,0.132,3.45,0.132,3.45,0.6679869487565325,0.0,0.744172988149219,-0.0,1.0,0.0,1.0,1.0,1.0, 1.0
651,0.0228,0.132,3.45,0.132,3.45,0.6943107395034338,0.0,0.7196753413937391,-0.0,1.0,0.0,1.0,1.0,1.0, 1.0
652,0.0228,0.132,3.45,0.132,3.45,0.018320838291468588,0.0,0.9998321593569082,-0.0,1.0,0.0,1.0,1.0,1.0, 1.0
653,0.0228,0.132,3.45,0.132,3.45,0.05508551958939548,0.0,0.9984816400573253,-0.0,1.0,0.0,1.0,1.0,1.0, 1.0
654,0.0228,0.132,3.45,0.132,3.45,0.09196958383561125,0.0,0.9957618167258194,-0.0,1.0,0.0,1.0,1.0,1.0, 1.0
655,0.0228,0.132,3.45,0.132,3.45,0.12893663287678017,0.0,0.9916528347674898,-0.0,1.0,0.0,1.0,1.0,1.0, 1.0
656,0.0228,0.132,3.45,0.132,3.45,0.16593550615296832,0.0,0.9861366070670728,-0.0,1.0,0.0,1.0,1.0,1.0, 1.0
657,0.0228,0.132,3.45,0.132,3.45,0.2029016588643512,0.0,0.9791991201130108,-0.0,1.0,0.0,1.0,1.0,1.0, 1.0
658,0.0228,0.132,3.45,0.132,3.45,0.23975946053629427,0.0,0.9708323238764485,-0.0,1.0,0.0,1.0,1.0,1.0, 1.0
659,0.0228,0.132,3.45,0.132,3.45,0.27641710556377225,0.0,0.9610377639571436,-0.0,1.0,0.0,1.0,1.0,1.0, 1.0
660,0.0228,0.132,3.45,0.132,3.45,0.3127896856362395,0.0,0.9498224110640802,-0.0,1.0,0.0,1.0,1.0,1.0, 1.0
661,0.0228,0.132,3.45,0.132,3.45,0.34877882672162724,0.0,0.9372050629561736,-0.0,1.0,0.0,1.0,1.0,1.0, 1.0
662,0.0228,0.132,3.45,0.132,3.45,0.3842804334481686,0.0,0.9232164147527316,-0.0,1.0,0.0,1.0,1.0,1.0, 1.0
663,0.0228,0.132,3.45,0.132,3.45,0.41920274980993344,0.0,0.9078926448384689,-0.0,1.0,0.0,1.0,1.0,1.0, 1.0
664,0.0228,0.132,3.45,0.132,3.45,0.45344437306924534,0.0,0.8912845788702053,-0.0,1.0,0.0,1.0,1.0,1.0, 1.0
665,0.0228,0.132,3.45,0.132,3.45,0.48692363551260276,0.0,0.8734445449936646,-0.0,1.0,0.0,1.0,1.0,1.0, 1.0
666,0.0228,0.132,3.45,0.132,3.45,0.5195561420149756,0.0,0.8544363143584867,-0.0,1.0,0.0,1.0,1.0,1.0, 1.0
667,0.0228,0.132,3.45,0.132,3.45,0.5512619069474947,0.0,0.8343322539304182,-0.0,1.0,0.0,1.0,1.0,1.0, 1.0
668,0.0228,0.132,3.45,0.132,3.45,0.5819763106314917,0.0,0.813205738951563,-0.0,1.0,0.0,1.0,1.0,1.0, 1.0
669,0.0228,0.132,3.45,0.132,3.45,0.6116401871362372,0.0,0.7911360701421398,-0.0,1.0,0.0,1.0,1.0,1.0, 1.0
670,0.0228,0.132,3.45,0.132,3.45,0.6402334999978156,0.0,0.7681803599940232,-0.0,1.0,0.0,1.0,1.0,1.0, 1.0
671,0.0228,0.132,3.45,0.132,3.45,0.6677518365308599,0.0,0.7443839632942556,-0.0,1.0,0.0,1.0,1.0,1.0, 1.0
672,0.0228,0.132,3.45,0.132,3.45,0.6942318653468667,0.0,0.7197514273254413,-0.0,1.0,0.0,1.0,1.0,1.0, 1.0
673,0.0228,0.132,3.45,0.132,3.45,0.018305591727908906,0.0,0.9998324386173372,-0.0,1.0,0.0,1.0,1.0,1.0, 1.0
674,0.0228,0.132,3.45,0.132,3.45,0.05504583799772726,0.0,0.998483828471512,-0.0,1.0,0.0,1.0,1.0,1.0, 1.0
675,0.0228,0.132,3.45,0.132,3.45,0.09190271490915142,0.0,0.9957679905441466,-0.0,1.0,0.0,1.0,1.0,1.0, 1.0
676,0.0228,0.132,3.45,0.132,3.45,0.128829507317076,0.0,0.9916667575574163,-0.0,1.0,0.0,1.0,1.0,1.0, 1.0
677,0.0228,0.132,3.45,0.132,3.45,0.1657789901929162,0.0,0.9861629309655767,-0.0,1.0,0.0,1.0,1.0,1.0, 1.0
678,0.0228,0.132,3.45,0.132,3.45,0.20268587956178338,0.0,0.9792438073463964,-0.0,1.0,0.0,1.0,1.0,1.0, 1.0
679,0.0228,0.132,3.45,0.132,3.45,0.23947351286365773,0.0,0.9709028976353606,-0.0,1.0,0.0,1.0,1.0,1.0, 1.0
680,0.0228,0.132,3.45,0.132,3.45,0.27605833415862424,0.0,0.9611408825669447,-0.0,1.0,0.0,1.0,1.0,1.0, 1.0
681,0.0228,0.132,3.45,0.132,3.45,0.31235471732747383,0.0,0.949965541776792,-0.0,1.0,0.0,1.0,1.0,1.0, 1.0
682,0.0228,0.132,3.45,0.132,3.45,0.34827291843137914,0.0,0.937393180200971,-0.0,1.0,0.0,1.0,1.0,1.0, 1.0
683,0.0228,0.132,3.45,0.132,3.45,0.3837132989195755,0.0,0.9234522750160165,-0.0,1.0,0.0,1.0,1.0,1.0, 1.0
684,0.0228,0.132,3.45,0.132,3.45,0.41858712420219346,0.0,0.908176645511289,-0.0,1.0,0.0,1.0,1.0,1.0, 1.0
685,0.0228,0.132,3.45,0.132,3.45,0.45279725535057946,0.0,0.8916135068217519,-0.0,1.0,0.0,1.0,1.0,1.0, 1.0
686,0.0228,0.132,3.45,0.132,3.45,0.48626137685939474,0.0,0.8738134087863412,-0.0,1.0,0.0,1.0,1.0,1.0, 1.0
687,0.0228,0.132,3.45,0.132,3.45,0.5189072805339099,0.0,0.8548305295255323,-0.0,1.0,0.0,1.0,1.0,1.0, 1.0
688,0.0228,0.132,3.45,0.132,3.45,0.5506468195097929,0.0,0.8347383303549382,-0.0,1.0,0.0,1.0,1.0,1.0, 1.0
689,0.0228,0.132,3.45,0.132,3.45,0.5814125727846456,0.0,0.8136088865099367,-0.0,1.0,0.0,1.0,1.0,1.0, 1.0
690,0.0228,0.132,3.45,0.132,3.45,0.611164807554061,0.0,0.7915033657587359,-0.0,1.0,0.0,1.0,1.0,1.0, 1.0
691,0.0228,0.132,3.45,0.132,3.45,0.6398782200505503,0.0,0.7684763259235378,-0.0,1.0,0.0,1.0,1.0,1.0, 1.0
692,0.0228,0.132,3.45,0.132,3.45,0.6675379261509219,0.0,0.7445757967797009,-0.0,1.0,0.0,1.0,1.0,1.0, 1.0
693,0.0228,0.132,3.45,0.132,3.45,0.6941633672748515,0.0,0.7198174904332622,-0.0,1.0,0.0,1.0,1.0,1.0, 1.0
694,0.0228,0.132,3.45,0.132,3.45,0.01830021920554323,0.0,0.9998325369665807,-0.0,1.0,0.0,1.0,1.0,1.0, 1.0
695,0.0228,0.132,3.45,0.132,3.45,0.05503399836029405,0.0,0.9984844811134919,-0.0,1.0,0.0,1.0,1.0,1.0, 1.0
696,0.0228,0.132,3.45,0.132,3.45,0.09188027213527947,0.0,0.9957700616067683,-0.0,1.0,0.0,1.0,1.0,1.0, 1.0
697,0.0228,0.132,3.45,0.132,3.45,0.1287856232674384,0.0,0.9916724576389209,-0.0,1.0,0.0,1.0,1.0,1.0, 1.0
698,0.0228,0.132,3.45,0.132,3.45,0.16569824018750504,0.0,0.9861765020516174,-0.0,1.0,0.0,1.0,1.0,1.0, 1.0
699,0.0228,0.132,3.45,0.132,3.45,0.20255315672515894,0.0,0.9792712692102598,-0.0,1.0,0.0,1.0,1.0,1.0, 1.0
700,0.0228,0.132,3.45,0.132,3.45,0.23928034955311328,0.0,0.9709505210450943,-0.0,1.0,0.0,1.0,1.0,1.0, 1.0
701,0.0228,0.132,3.45,0.132,3.45,0.2757973780813293,0.0,0.9612157958770051,-0.0,1.0,0.0,1.0,1.0,1.0, 1.0
702,0.0228,0.132,3.45,0.132,3.45,0.31202176385877256,0.0,0.9500749543475296,-0.0,1.0,0.0,1.0,1.0,1.0, 1.0
703,0.0228,0.132,3.45,0.132,3.45,0.3478720230709368,0.0,0.9375420286923322,-0.0,1.0,0.0,1.0,1.0,1.0, 1.0
704,0.0228,0.132,3.45,0.132,3.45,0.38324904400277376,0.0,0.923645045605161,-0.0,1.0,0.0,1.0,1.0,1.0, 1.0
705,0.0228,0.132,3.45,0.132,3.45,0.41806591255080666,0.0,0.9084166955549976,-0.0,1.0,0.0,1.0,1.0,1.0, 1.0
706,0.0228,0.132,3.45,0.132,3.45,0.452242230580213,0.0,0.8918951535241311,-0.0,1.0,0.0,1.0,1.0,1.0, 1.0
707,0.0228,0.132,3.45,0.132,3.45,0.485689861897762,0.0,0.8741312018511482,-0.0,1.0,0.0,1.0,1.0,1.0, 1.0
708,0.0228,0.132,3.45,0.132,3.45,0.5183314736050988,0.0,0.855179795990508,-0.0,1.0,0.0,1.0,1.0,1.0, 1.0
709,0.0228,0.132,3.45,0.132,3.45,0.5500934029543348,0.0,0.8351031361611091,-0.0,1.0,0.0,1.0,1.0,1.0, 1.0
710,0.0228,0.132,3.45,0.132,3.45,0.580915287489178,0.0,0.8139640217855859,-0.0,1.0,0.0,1.0,1.0,1.0, 1.0
711,0.0228,0.132,3.45,0.132,3.45,0.6107453602231477,0.0,0.7918270675885598,-0.0,1.0,0.0,1.0,1.0,1.0, 1.0
712,0.0228,0.132,3.45,0.132,3.45,0.6395580257765141,0.0,0.7687428254395924,-0.0,1.0,0.0,1.0,1.0,1.0, 1.0
713,0.0228,0.132,3.45,0.132,3.45,0.6673387332533907,0.0,0.7447543320449771,-0.0,1.0,0.0,1.0,1.0,1.0, 1.0
714,0.0228,0.132,3.45,0.132,3.45,0.6940953850669624,0.0,0.719883043576347,-0.0,1.0,0.0,1.0,1.0,1.0, 1.0
715,0.0228,0.132,3.45,0.132,3.45,0.018304479623096042,0.0,0.9998324589778668,-0.0,1.0,0.0,1.0,1.0,1.0, 1.0
716,0.0228,0.132,3.45,0.132,3.45,0.0550483202424641,0.0,0.9984836916236955,-0.0,1.0,0.0,1.0,1.0,1.0, 1.0
717,0.0228,0.132,3.45,0.132,3.45,0.09190003428305736,0.0,0.9957682379443384,-0.0,1.0,0.0,1.0,1.0,1.0, 1.0
718,0.0228,0.132,3.45,0.132,3.45,0.12879941371495227,0.0,0.9916706666160316,-0.0,1.0,0.0,1.0,1.0,1.0, 1.0
719,0.0228,0.132,3.45,0.132,3.45,0.1656881746838232,0.0,0.9861781932135505,-0.0,1.0,0.0,1.0,1.0,1.0, 1.0
720,0.0228,0.132,3.45,0.132,3.45,0.20250103832158206,0.0,0.9792820479712069,-0.0,1.0,0.0,1.0,1.0,1.0, 1.0
721,0.0228,0.132,3.45,0.132,3.45,0.23917435524870537,0.0,0.9709766360687399,-0.0,1.0,0.0,1.0,1.0,1.0, 1.0
722,0.0228,0.132,3.45,0.132,3.45,0.27563077260618957,0.0,0.9612635836192459,-0.0,1.0,0.0,1.0,1.0,1.0, 1.0
723,0.0228,0.132,3.45,0.132,3.45,0.31178778211350516,0.0,0.9501517662588127,-0.0,1.0,0.0,1.0,1.0,1.0, 1.0
724,0.0228,0.132,3.45,0.132,3.45,0.34756946993141913,0.0,0.9376542345510909,-0.0,1.0,0.0,1.0,1.0,1.0, 1.0
725,0.0228,0.132,3.45,0.132,3.45,0.38288346419486485,0.0,0.9237966512421116,-0.0,1.0,0.0,1.0,1.0,1.0, 1.0
726,0.0228,0.132,3.45,0.132,3.45,0.41764321769315066,0.0,0.9086111064228258,-0.0,1.0,0.0,1.0,1.0,1.0, 1.0
727,0.0228,0.132,3.45,0.132,3.45,0.4517748462326018,0.0,0.8921319904092156,-0.0,1.0,0.0,1.0,1.0,1.0, 1.0
728,0.0228,0.132,3.45,0.132,3.45,0.4851966619200109,0.0,0.874405054457989,-0.0,1.0,0.0,1.0,1.0,1.0, 1.0
729,0.0228,0.132,3.45,0.132,3.45,0.5178299058825837,0.0,0.8554835992429279,-0.0,1.0,0.0,1.0,1.0,1.0, 1.0
730,0.0228,0.132,3.45,0.132,3.45,0.5496114607006636,0.0,0.8354203985218956,-0.0,1.0,0.0,1.0,1.0,1.0, 1.0
731,0.0228,0.132,3.45,0.132,3.45,0.5804816072485462,0.0,0.8142733592879879,-0.0,1.0,0.0,1.0,1.0,1.0, 1.0
732,0.0228,0.132,3.45,0.132,3.45,0.6103774632372906,0.0,0.7921106945194024,-0.0,1.0,0.0,1.0,1.0,1.0, 1.0
733,0.0228,0.132,3.45,0.132,3.45,0.63927261094334,0.0,0.768980187584625,-0.0,1.0,0.0,1.0,1.0,1.0, 1.0
734,0.0228,0.132,3.45,0.132,3.45,0.6671537799338577,0.0,0.7449200184717589,-0.0,1.0,0.0,1.0,1.0,1.0, 1.0
735,0.0228,0.132,3.45,0.132,3.45,0.6940311588745223,0.0,0.7199449635293572,-0.0,1.0,0.0,1.0,1.0,1.0, 1.0
736,0.0228,0.132,3.45,0.132,3.45,0.018318389002778445,0.0,0.999832204234462,-0.0,1.0,0.0,1.0,1.0,1.0, 1.0
737,0.0228,0.132,3.45,0.132,3.45,0.05509064711475119,0.0,0.9984813571622045,-0.0,1.0,0.0,1.0,1.0,1.0, 1.0
738,0.0228,0.132,3.45,0.132,3.45,0.09196200250369223,0.0,0.9957625169163131,-0.0,1.0,0.0,1.0,1.0,1.0, 1.0
739,0.0228,0.132,3.45,0.132,3.45,0.1288647702797224,0.0,0.9916621758344695,-0.0,1.0,0.0,1.0,1.0,1.0, 1.0
740,0.0228,0.132,3.45,0.132,3.45,0.1657393069678176,0.0,0.9861696010959917,-0.0,1.0,0.0,1.0,1.0,1.0, 1.0
741,0.0228,0.132,3.45,0.132,3.45,0.20252323012568174,0.0,0.9792774587722624,-0.0,1.0,0.0,1.0,1.0,1.0, 1.0
742,0.0228,0.132,3.45,0.132,3.45,0.23915104398790973,0.0,0.9709823778830865,-0.0,1.0,0.0,1.0,1.0,1.0, 1.0
743,0.0228,0.132,3.45,0.132,3.45,0.27554962701647995,0.0,0.96128684743477,-0.0,1.0,0.0,1.0,1.0,1.0, 1.0
744,0.0228,0.132,3.45,0.132,3.45,0.3116432748905774,0.0,0.9501991734449552,-0.0,1.0,0.0,1.0,1.0,1.0, 1.0
745,0.0228,0.132,3.45,0.132,3.45,0.347357679395426,0.0,0.9377327138182949,-0.0,1.0,0.0,1.0,1.0,1.0, 1.0
746,0.0228,0.132,3.45,0.132,3.45,0.3826050387314409,0.0,0.9239120003210871,-0.0,1.0,0.0,1.0,1.0,1.0, 1.0
747,0.0228,0.132,3.45,0.132,3.45,0.4173100029652477,0.0,0.9087641946209946,-0.0,1.0,0.0,1.0,1.0,1.0, 1.0
748,0.0228,0.132,3.45,0.132,3.45,0.45139406830717094,0.0,0.8923247139338354,-0.0,1.0,0.0,1.0,1.0,1.0, 1.0
749,0.0228,0.132,3.45,0.132,3.45,0.48477816631909243,0.0,0.8746371415966157,-0.0,1.0,0.0,1.0,1.0,1.0, 1.0
750,0.0228,0.132,3.45,0.132,3.45,0.5174052932571575,0.0,0.8557404761430154,-0.0,1.0,0.0,1.0,1.0,1.0, 1.0
751,0.0228,0.132,3.45,0.132,3.45,0.549199341279091,0.0,0.8356913805578063,-0.0,1.0,0.0,1.0,1.0,1.0, 1.0
752,0.0228,0.132,3.45,0.132,3.45,0.5800918588244958,0.0,0.8145510636697625,-0.0,1.0,0.0,1.0,1.0,1.0, 1.0
753,0.0228,0.132,3.45,0.132,3.45,0.6100422583413753,0.0,0.7923688806596048,-0.0,1.0,0.0,1.0,1.0,1.0, 1.0
754,0.0228,0.132,3.45,0.132,3.45,0.6390174886508435,0.0,0.7691922056276761,-0.0,1.0,0.0,1.0,1.0,1.0, 1.0
755,0.0228,0.132,3.45,0.132,3.45,0.6669957114547569,0.0,0.7450615551086788,-0.0,1.0,0.0,1.0,1.0,1.0, 1.0
756,0.0228,0.132,3.45,0.132,3.45,0.6939798678670241,0.0,0.7199944048360847,-0.0,1.0,0.0,1.0,1.0,1.0, 1.0
757,0.0228,0.132,3.45,0.132,3.45,0.018341977321059615,0.0,0.9998317717836105,-0.0,1.0,0.0,1.0,1.0,1.0, 1.0
758,0.0228,0.132,3.45,0.132,3.45,0.05516019300966967,0.0,0.9984775175772042,-0.0,1.0,0.0,1.0,1.0,1.0, 1.0
759,0.0228,0.132,3.45,0.132,3.45,0.09206465483441374,0.0,0.9957530312935132,-0.0,1.0,0.0,1.0,1.0,1.0, 1.0
760,0.0228,0.132,3.45,0.132,3.45,0.12898296379584098,0.0,0.9916468096305462,-0.0,1.0,0.0,1.0,1.0,1.0, 1.0
761,0.0228,0.132,3.45,0.132,3.45,0.1658545364074254,0.0,0.986150228288306,-0.0,1.0,0.0,1.0,1.0,1.0, 1.0
762,0.0228,0.132,3.45,0.132,3.45,0.2026180743872038,0.0,0.9792578393516294,-0.0,1.0,0.0,1.0,1.0,1.0, 1.0
763,0.0228,0.132,3.45,0.132,3.45,0.2392058601858441,0.0,0.9709688751204903,-0.0,1.0,0.0,1.0,1.0,1.0, 1.0
764,0.0228,0.132,3.45,0.132,3.45,0.2755506061064954,0.0,0.9612865667813856,-0.0,1.0,0.0,1.0,1.0,1.0, 1.0
765,0.0228,0.132,3.45,0.132,3.45,0.31158594143446244,0.0,0.9502179755721315,-0.0,1.0,0.0,1.0,1.0,1.0, 1.0
766,0.0228,0.132,3.45,0.132,3.45,0.3472348834023292,0.0,0.9377781911244102,-0.0,1.0,0.0,1.0,1.0,1.0, 1.0
767,0.0228,0.132,3.45,0.132,3.45,0.3824147519209251,0.0,0.9239907778291172,-0.0,1.0,0.0,1.0,1.0,1.0, 1.0
768,0.0228,0.132,3.45,0.132,3.45,0.4170592939395501,0.0,0.9088792798488939,-0.0,1.0,0.0,1.0,1.0,1.0, 1.0
769,0.0228,0.132,3.45,0.132,3.45,0.4510956665013661,0.0,0.8924756017189983,-0.0,1.0,0.0,1.0,1.0,1.0, 1.0
770,0.0228,0.132,3.45,0.132,3.45,0.48443924788151926,0.0,0.8748249054022115,-0.0,1.0,0.0,1.0,1.0,1.0, 1.0
771,0.0228,0.132,3.45,0.132,3.45,0.517044243372305,0.0,0.8559586732988694,-0.0,1.0,0.0,1.0,1.0,1.0, 1.0
772,0.0228,0.132,3.45,0.132,3.45,0.5488427882747354,0.0,0.8359255910419384,-0.0,1.0,0.0,1.0,1.0,1.0, 1.0
773,0.0228,0.132,3.45,0.132,3.45,0.5797532022225228,0.0,0.8147921357700566,-0.0,1.0,0.0,1.0,1.0,1.0, 1.0
774,0.0228,0.132,3.45,0.132,3.45,0.6097505846683021,0.0,0.7925933538055084,-0.0,1.0,0.0,1.0,1.0,1.0, 1.0
775,0.0228,0.132,3.45,0.132,3.45,0.638800565894783,0.0,0.7693723656413095,-0.0,1.0,0.0,1.0,1.0,1.0, 1.0
776,0.0228,0.132,3.45,0.132,3.45,0.6668613229532442,0.0,0.7451818408610407,-0.0,1.0,0.0,1.0,1.0,1.0, 1.0
777,0.0228,0.132,3.45,0.132,3.45,0.6939351196705743,0.0,0.7200375335270973,-0.0,1.0,0.0,1.0,1.0,1.0, 1.0
778,0.0228,0.132,3.45,0.132,3.45,0.01837585132183775,0.0,0.999831149788902,-0.0,1.0,0.0,1.0,1.0,1.0, 1.0
779,0.0228,0.132,3.45,0.132,3.45,0.055256851761802006,0.0,0.9984721730390758,-0.0,1.0,0.0,1.0,1.0,1.0, 1.0
780,0.0228,0.132,3.45,0.132,3.45,0.09220975770568886,0.0,0.9957396048083345,-0.0,1.0,0.0,1.0,1.0,1.0, 1.0
781,0.0228,0.132,3.45,0.132,3.45,0.1291567780938456,0.0,0.9916241862078684,-0.0,1.0,0.0,1.0,1.0,1.0, 1.0
782,0.0228,0.132,3.45,0.132,3.45,0.16603478107111386,0.0,0.9861198971092041,-0.0,1.0,0.0,1.0,1.0,1.0, 1.0
783,0.0228,0.132,3.45,0.132,3.45,0.2027816969878538,0.0,0.9792239699714904,-0.0,1.0,0.0,1.0,1.0,1.0, 1.0
784,0.0228,0.132,3.45,0.132,3.45,0.23933703879278528,0.0,0.9709365488341145,-0.0,1.0,0.0,1.0,1.0,1.0, 1.0
785,0.0228,0.132,3.45,0.132,3.45,0.2756364892769793,0.0,0.9612619444142485,-0.0,1.0,0.0,1.0,1.0,1.0, 1.0
786,0.0228,0.132,3.45,0.132,3.45,0.3116127045338493,0.0,0.9502091992677717,-0.0,1.0,0.0,1.0,1.0,1.0, 1.0
787,0.0228,0.132,3.45,0.132,3.45,0.3471936161383605,0.0,0.9377934702869116,-0.0,1.0,0.0,1.0,1.0,1.0, 1.0
788,0.0228,0.132,3.45,0.132,3.45,0.38230993978502065,0.0,0.9240341497702204,-0.0,1.0,0.0,1.0,1.0,1.0, 1.0
789,0.0228,0.132,3.45,0.132,3.45,0.41689250205349176,0.0,0.9089557974574888,-0.0,1.0,0.0,1.0,1.0,1.0, 1.0
790,0.0228,0.132,3.45,0.132,3.45,0.45087224223133104,0.0,0.8925884948761618,-0.0,1.0,0.0,1.0,1.0,1.0, 1.0
791,0.0228,0.132,3.45,0.132,3.45,0.48417826877815934,0.0,0.8749693732028478,-0.0,1.0,0.0,1.0,1.0,1.0, 1.0
792,0.0228,0.132,3.45,0.132,3.45,0.5167532408851819,0.0,0.8561343866675729,-0.0,1.0,0.0,1.0,1.0,1.0, 1.0
793,0.0228,0.132,3.45,0.132,3.45,0.5485438510672964,0.0,0.8361217874545908,-0.0,1.0,0.0,1.0,1.0,1.0, 1.0
794,0.0228,0.132,3.45,0.132,3.45,0.5794747099466385,0.0,0.8149902211267686,-0.0,1.0,0.0,1.0,1.0,1.0, 1.0
795,0.0228,0.132,3.45,0.132,3.45,0.6095022507154217,0.0,0.7927843378705429,-0.0,1.0,0.0,1.0,1.0,1.0, 1.0
796,0.0228,0.132,3.45,0.132,3.45,0.6386023756697184,0.0,0.7695368774717635,-0.0,1.0,0.0,1.0,1.0,1.0, 1.0
797,0.0228,0.132,3.45,0.132,3.45,0.6667318019873336,0.0,0.7452977285747776,-0.0,1.0,0.0,1.0,1.0,1.0, 1.0
798,0.0228,0.132,3.45,0.132,3.45,0.6938879966277808,0.0,0.7200829453166384,-0.0,1.0,0.0,1.0,1.0,1.0, 1.0
799,0.0228,0.132,3.45,0.132,3.45,0.01842100508614061,0.0,0.9998303188899685,-0.0,1.0,0.0,1.0,1.0,1.0, 1.0
800,0.0228,0.132,3.45,0.132,3.45,0.05538289498576607,0.0,0.9984651896500928,-0.0,1.0,0.0,1.0,1.0,1.0, 1.0
801,0.0228,0.132,3.45,0.132,3.45,0.0923982154509173,0.0,0.9957221348255174,-0.0,1.0,0.0,1.0,1.0,1.0, 1.0
802,0.0228,0.132,3.45,0.132,3.45,0.1293835060699052,0.0,0.9915946290481099,-0.0,1.0,0.0,1.0,1.0,1.0, 1.0
803,0.0228,0.132,3.45,0.132,3.45,0.16627596206846776,0.0,0.9860792586999308,-0.0,1.0,0.0,1.0,1.0,1.0, 1.0
804,0.0228,0.132,3.45,0.132,3.45,0.20301409365200795,0.0,0.9791758155605426,-0.0,1.0,0.0,1.0,1.0,1.0, 1.0
805,0.0228,0.132,3.45,0.132,3.45,0.23954120993095737,0.0,0.9708861976281324,-0.0,1.0,0.0,1.0,1.0,1.0, 1.0
806,0.0228,0.132,3.45,0.132,3.45,0.27579752268516655,0.0,0.9612157543864567,-0.0,1.0,0.0,1.0,1.0,1.0, 1.0
807,0.0228,0.132,3.45,0.132,3.45,0.31171714046547966,0.0,0.9501749440708402,-0.0,1.0,0.0,1.0,1.0,1.0, 1.0
808,0.0228,0.132,3.45,0.132,3.45,0.34723349098361,0.0,0.9377787066996857,-0.0,1.0,0.0,1.0,1.0,1.0, 1.0
809,0.0228,0.132,3.45,0.132,3.45,0.38228306038052706,0.0,0.9240452703986415,-0.0,1.0,0.0,1.0,1.0,1.0, 1.0
810,0.0228,0.132,3.45,0.132,3.45,0.4168020309910552,0.0,0.9089972865535583,-0.0,1.0,0.0,1.0,1.0,1.0, 1.0
811,0.0228,0.132,3.45,0.132,3.45,0.45072262371917415,0.0,0.892664055772217,-0.0,1.0,0.0,1.0,1.0,1.0, 1.0
812,0.0228,0.132,3.45,0.132,3.45,0.4839827059759931,0.0,0.8750775624572689,-0.0,1.0,0.0,1.0,1.0,1.0, 1.0
813,0.0228,0.132,3.45,0.132,3.45,0.5165261929022248,0.0,0.8562713892487205,-0.0,1.0,0.0,1.0,1.0,1.0, 1.0
814,0.0228,0.132,3.45,0.132,3.45,0.5482964400112925,0.0,0.8362840509485655,-0.0,1.0,0.0,1.0,1.0,1.0, 1.0
815,0.0228,0.132,3.45,0.132,3.45,0.5792340960797215,0.0,0.8151612490413832,-0.0,1.0,0.0,1.0,1.0,1.0, 1.0
816,0.0228,0.132,3.45,0.132,3.45,0.6092891857497776,0.0,0.79294809926525,-0.0,1.0,0.0,1.0,1.0,1.0, 1.0
817,0.0228,0.132,3.45,0.132,3.45,0.6384305351088885,0.0,0.7696794474588616,-0.0,1.0,0.0,1.0,1.0,1.0, 1.0
818,0.0228,0.132,3.45,0.132,3.45,0.6666231867749476,0.0,0.7453948798147284,-0.0,1.0,0.0,1.0,1.0,1.0, 1.0
819,0.0228,0.132,3.45,0.132,3.45,0.6938519505168266,0.0,0.7201176784137404,-0.0,1.0,0.0,1.0,1.0,1.0, 1.0
820,0.0228,0.132,3.45,0.132,3.45,0.018479342823843708,0.0,0.9998292423653146,-0.0,1.0,0.0,1.0,1.0,1.0, 1.0
821,0.0228,0.132,3.45,0.132,3.45,0.055540688010741926,0.0,0.9984564246752551,-0.0,1.0,0.0,1.0,1.0,1.0, 1.0
822,0.0228,0.132,3.45,0.132,3.45,0.09262965755510133,0.0,0.9957006309836429,-0.0,1.0,0.0,1.0,1.0,1.0, 1.0
823,0.0228,0.132,3.45,0.132,3.45,0.12966158160405436,0.0,0.9915583060294212,-0.0,1.0,0.0,1.0,1.0,1.0, 1.0
824,0.0228,0.132,3.45,0.132,3.45,0.16657490663387678,0.0,0.9860288030681026,-0.0,1.0,0.0,1.0,1.0,1.0, 1.0
825,0.0228,0.132,3.45,0.132,3.45,0.2033107850400333,0.0,0.97911425517475,-0.0,1.0,0.0,1.0,1.0,1.0, 1.0
826,0.0228,0.132,3.45,0.132,3.45,0.23981397779390726,0.0,0.9708188585182426,-0.0,1.0,0.0,1.0,1.0,1.0, 1.0
827,0.0228,0.132,3.45,0.132,3.45,0.27602869962982163,0.0,0.9611493936848058,-0.0,1.0,0.0,1.0,1.0,1.0, 1.0
828,0.0228,0.132,3.45,0.132,3.45,0.31189410782609406,0.0,0.9501168693920579,-0.0,1.0,0.0,1.0,1.0,1.0, 1.0
829,0.0228,0.132,3.45,0.132,3.45,0.34735058892989634,0.0,0.9377353402586756,-0.0,1.0,0.0,1.0,1.0,1.0, 1.0
830,0.0228,0.132,3.45,0.132,3.45,0.38233226177406576,0.0,0.9240249139534753,-0.0,1.0,0.0,1.0,1.0,1.0, 1.0
831,0.0228,0.132,3.45,0.132,3.45,0.41678312597343514,0.0,0.9090059548230757,-0.0,1.0,0.0,1.0,1.0,1.0, 1.0
832,0.0228,0.132,3.45,0.132,3.45,0.4506437390936601,0.0,0.8927038817075263,-0.0,1.0,0.0,1.0,1.0,1.0, 1.0
833,0.0228,0.132,3.45,0.132,3.45,0.4838504449361221,0.0,0.8751506995570059,-0.0,1.0,0.0,1.0,1.0,1.0, 1.0
834,0.0228,0.132,3.45,0.132,3.45,0.5163535455330639,0.0,0.8563755111021298,-0.0,1.0,0.0,1.0,1.0,1.0, 1.0
835,0.0228,0.132,3.45,0.132,3.45,0.5480978477445002,0.0,0.8364142211236287,-0.0,1.0,0.0,1.0,1.0,1.0, 1.0
836,0.0228,0.132,3.45,0.132,3.45,0.5790310838729071,0.0,0.8153054666252191,-0.0,1.0,0.0,1.0,1.0,1.0, 1.0
837,0.0228,0.132,3.45,0.132,3.45,0.60910981583429,0.0,0.7930858921039495,-0.0,1.0,0.0,1.0,1.0,1.0, 1.0
838,0.0228,0.132,3.45,0.132,3.45,0.6382873705452019,0.0,0.7697981765388198,-0.0,1.0,0.0,1.0,1.0,1.0, 1.0
839,0.0228,0.132,3.45,0.132,3.45,0.6665338293427997,0.0,0.745474784510934,-0.0,1.0,0.0,1.0,1.0,1.0, 1.0
840,0.0228,0.132,3.45,0.132,3.45,0.6938253174582115,0.0,0.7201433391027179,-0.0,1.0,0.0,1.0,1.0,1.0, 1.0
841,0.0228,0.132,3.45,0.132,3.45,0.018553564890979254,0.0,0.9998278678001711,-0.0,1.0,0.0,1.0,1.0,1.0, 1.0
842,0.0228,0.132,3.45,0.132,3.45,0.05573202248738986,0.0,0.9984457630084196,-0.0,1.0,0.0,1.0,1.0,1.0, 1.0
843,0.0228,0.132,3.45,0.132,3.45,0.09290227696943655,0.0,0.9956752316563338,-0.0,1.0,0.0,1.0,1.0,1.0, 1.0
844,0.0228,0.132,3.45,0.132,3.45,0.1299857712833507,0.0,0.9915158593103149,-0.0,1.0,0.0,1.0,1.0,1.0, 1.0
845,0.0228,0.132,3.45,0.132,3.45,0.16692346773240013,0.0,0.9859698554825044,-0.0,1.0,0.0,1.0,1.0,1.0, 1.0
846,0.0228,0.132,3.45,0.132,3.45,0.2036600265619682,0.0,0.9790416710134348,-0.0,1.0,0.0,1.0,1.0,1.0, 1.0
847,0.0228,0.132,3.45,0.132,3.45,0.24014439994998926,0.0,0.9707371771868323,-0.0,1.0,0.0,1.0,1.0,1.0, 1.0
848,0.0228,0.132,3.45,0.132,3.45,0.2763223190035483,0.0,0.9610650217443673,-0.0,1.0,0.0,1.0,1.0,1.0, 1.0
849,0.0228,0.132,3.45,0.132,3.45,0.31213570394554474,0.0,0.9500375267969257,-0.0,1.0,0.0,1.0,1.0,1.0, 1.0
850,0.0228,0.132,3.45,0.132,3.45,0.3475299973308996,0.0,0.9376688653011707,-0.0,1.0,0.0,1.0,1.0,1.0, 1.0
851,0.0228,0.132,3.45,0.132,3.45,0.3824435603862551,0.0,0.9239788542597092,-0.0,1.0,0.0,1.0,1.0,1.0, 1.0
852,0.0228,0.132,3.45,0.132,3.45,0.4168242643841044,0.0,0.908987091558868,-0.0,1.0,0.0,1.0,1.0,1.0, 1.0
853,0.0228,0.132,3.45,0.132,3.45,0.45061913097380996,0.0,0.8927163036488178,-0.0,1.0,0.0,1.0,1.0,1.0, 1.0
854,0.0228,0.132,3.45,0.132,3.45,0.4837737960153874,0.0,0.8751930725781955,-0.0,1.0,0.0,1.0,1.0,1.0, 1.0
855,0.0228,0.132,3.45,0.132,3.45,0.5162331463478308,0.0,0.8564480945228492,-0.0,1.0,0.0,1.0,1.0,1.0, 1.0
856,0.0228,0.132,3.45,0.132,3.45,0.5479491466754782,0.0,0.8365116452612094,-0.0,1.0,0.0,1.0,1.0,1.0, 1.0
857,0.0228,0.132,3.45,0.132,3.45,0.578868180671287,0.0,0.8154211362273572,-0.0,1.0,0.0,1.0,1.0,1.0, 1.0
858,0.0228,0.132,3.45,0.132,3.45,0.6089521011203838,0.0,0.7932069960237806,-0.0,1.0,0.0,1.0,1.0,1.0, 1.0
859,0.0228,0.132,3.45,0.132,3.45,0.6381609361307272,0.0,0.7699029936276086,-0.0,1.0,0.0,1.0,1.0,1.0, 1.0
860,0.0228,0.132,3.45,0.132,3.45,0.666452489027677,0.0,0.7455475034287313,-0.0,1.0,0.0,1.0,1.0,1.0, 1.0
861,0.0228,0.132,3.45,0.132,3.45,0.6937981933415724,0.0,0.7201694709691394,-0.0,1.0,0.0,1.0,1.0,1.0, 1.0
862,0.0228,0.132,3.45,0.132,3.45,0.01864684649095201,0.0,0.9998261324430078,-0.0,1.0,0.0,1.0,1.0,1.0, 1.0
863,0.0228,0.132,3.45,0.132,3.45,0.0559533219325234,0.0,0.9984333857422413,-0.0,1.0,0.0,1.0,1.0,1.0, 1.0
864,0.0228,0.132,3.45,0.132,3.45,0.09320571157606554,0.0,0.9956468728066188,-0.0,1.0,0.0,1.0,1.0,1.0, 1.0
865,0.0228,0.132,3.45,0.132,3.45,0.13034081431882535,0.0,0.9914692492068049,-0.0,1.0,0.0,1.0,1.0,1.0, 1.0
866,0.0228,0.132,3.45,0.132,3.45,0.16730743120328406,0.0,0.985904774034571,-0.0,1.0,0.0,1.0,1.0,1.0, 1.0
867,0.0228,0.132,3.45,0.132,3.45,0.2040504507389191,0.0,0.9789603738421918,-0.0,1.0,0.0,1.0,1.0,1.0, 1.0
868,0.0228,0.132,3.45,0.132,3.45,0.24051657560262585,0.0,0.9706450313376083,-0.0,1.0,0.0,1.0,1.0,1.0, 1.0
869,0.0228,0.132,3.45,0.132,3.45,0.27665898322933635,0.0,0.9609681612824172,-0.0,1.0,0.0,1.0,1.0,1.0, 1.0
870,0.0228,0.132,3.45,0.132,3.45,0.31242231174316476,0.0,0.9499433136377438,-0.0,1.0,0.0,1.0,1.0,1.0, 1.0
871,0.0228,0.132,3.45,0.132,3.45,0.3477526808886179,0.0,0.9375863015929676,-0.0,1.0,0.0,1.0,1.0,1.0, 1.0
872,0.0228,0.132,3.45,0.132,3.45,0.38259807771903187,0.0,0.9239148829441496,-0.0,1.0,0.0,1.0,1.0,1.0, 1.0
873,0.0228,0.132,3.45,0.132,3.45,0.416909154157301,0.0,0.9089481597868186,-0.0,1.0,0.0,1.0,1.0,1.0, 1.0
874,0.0228,0.132,3.45,0.132,3.45,0.4506369474073035,0.0,0.8927073101702635,-0.0,1.0,0.0,1.0,1.0,1.0, 1.0
875,0.0228,0.132,3.45,0.132,3.45,0.4837346091076435,0.0,0.8752147324808212,-0.0,1.0,0.0,1.0,1.0,1.0, 1.0
876,0.0228,0.132,3.45,0.132,3.45,0.5161478751961946,0.0,0.8564994868243958,-0.0,1.0,0.0,1.0,1.0,1.0, 1.0
877,0.0228,0.132,3.45,0.132,3.45,0.5478283657232939,0.0,0.8365907492370119,-0.0,1.0,0.0,1.0,1.0,1.0, 1.0
878,0.0228,0.132,3.45,0.132,3.45,0.5787297656837573,0.0,0.8155193794825621,-0.0,1.0,0.0,1.0,1.0,1.0, 1.0
879,0.0228,0.132,3.45,0.132,3.45,0.6088156426996524,0.0,0.7933117377199262,-0.0,1.0,0.0,1.0,1.0,1.0, 1.0
880,0.0228,0.132,3.45,0.132,3.45,0.6380513281819998,0.0,0.769993832835813,-0.0,1.0,0.0,1.0,1.0,1.0, 1.0
881,0.0228,0.132,3.45,0.132,3.45,0.6663817823287914,0.0,0.7456107028337934,-0.0,1.0,0.0,1.0,1.0,1.0, 1.0
882,0.0228,0.132,3.45,0.132,3.45,0.6937722987503776,0.0,0.7201944164505976,-0.0,1.0,0.0,1.0,1.0,1.0, 1.0
883,0.0228,0.132,3.45,0.132,3.45,0.02018432384026112,0.0,0.9997962757837776,-0.0,1.0,0.0,1.0,1.0,1.0, 1.0
884,0.0228,0.132,3.45,0.132,3.45,0.060631291482433125,0.0,0.9981602308713629,-0.0,1.0,0.0,1.0,1.0,1.0, 1.0
885,0.0228,0.132,3.45,0.132,3.45,0.10109401320235985,0.0,0.9948768770529551,-0.0,1.0,0.0,1.0,1.0,1.0, 1.0
886,0.0228,0.132,3.45,0.132,3.45,0.14150005968333124,0.0,0.9899382471192906,-0.0,1.0,0.0,1.0,1.0,1.0, 1.0
887,0.0228,0.132,3.45,0.132,3.45,0.18177250183982552,0.0,0.9833406111693398,-0.0,1.0,0.0,1.0,1.0,1.0, 1.0
888,0.0228,0.132,3.45,0.132,3.45,0.2218117960725497,0.0,0.9750894969812103,-0.0,1.0,0.0,1.0,1.0,1.0, 1.0
889,0.0228,0.132,3.45,0.132,3.45,0.26149659997498237,0.0,0.9652043971105416,-0.0,1.0,0.0,1.0,1.0,1.0, 1.0
890,0.0228,0.132,3.45,0.132,3.45,0.30070151697577313,0.0,0.9537183010137055,-0.0,1.0,0.0,1.0,1.0,1.0, 1.0
891,0.0228,0.132,3.45,0.132,3.45,0.3392924471918907,0.0,0.9406809423383351,-0.0,1.0,0.0,1.0,1.0,1.0, 1.0
892,0.0228,0.132,3.45,0.132,3.45,0.3771232345298256,0.0,0.9261630882181401,-0.0,1.0,0.0,1.0,1.0,1.0, 1.0
893,0.0228,0.132,3.45,0.132,3.45,0.41406746804776845,0.0,0.910246193018411,-0.0,1.0,0.0,1.0,1.0,1.0, 1.0
894,0.0228,0.132,3.45,0.132,3.45,0.4499968673255184,0.0,0.8930301335325813,-0.0,1.0,0.0,1.0,1.0,1.0, 1.0
895,0.0228,0.132,3.45,0.132,3.45,0.4847798296837679,0.0,0.8746362196546498,-0.0,1.0,0.0,1.0,1.0,1.0, 1.0
896,0.0228,0.132,3.45,0.132,3.45,0.5182949196992787,0.0,0.8552019505437988,-0.0,1.0,0.0,1.0,1.0,1.0, 1.0
897,0.0228,0.132,3.45,0.132,3.45,0.5504006158267497,0.0,0.8349006899611084,-0.0,1.0,0.0,1.0,1.0,1.0, 1.0
898,0.0228,0.132,3.45,0.132,3.45,0.5809434573948371,0.0,0.8139439165631335,-0.0,1.0,0.0,1.0,1.0,1.0, 1.0
899,0.0228,0.132,3.45,0.132,3.45,0.6097321414957735,0.0,0.7926075419947619,-0.0,1.0,0.0,1.0,1.0,1.0, 1.0
900,0.0228,0.132,3.45,0.132,3.45,0.6364840816017078,0.0,0.7712898377831972,-0.0,1.0,0.0,1.0,1.0,1.0, 1.0
901,0.0228,0.132,3.45,0.132,3.45,0.6608108344777057,0.0,0.7505524905273968,-0.0,1.0,0.0,1.0,1.0,1.0, 1.0
902,0.0228,0.132,3.45,0.132,3.45,0.6821251832014001,0.0,0.7312354165673707,-0.0,1.0,0.0,1.0,1.0,1.0, 1.0
903,0.0228,0.132,3.45,0.132,3.45,0.69954757931257,0.0,0.7145860230076736,-0.0,1.0,0.0,1.0,1.0,1.0, 1.0
904,0.0228,0.132,3.45,0.132,3.45,0.019549191585741393,0.0,0.9998088962938587,-0.0,1.0,0.0,1.0,1.0,1.0, 1.0
905,0.0228,0.132,3.45,0.132,3.45,0.058733891108390564,0.0,0.9982736749184905,-0.0,1.0,0.0,1.0,1.0,1.0, 1.0
906,0.0228,0.132,3.45,0.132,3.45,0.09797180860024,0.0,0.9951891904153694,-0.0,1.0,0.0,1.0,1.0,1.0, 1.0
907,0.0228,0.132,3.45,0.132,3.45,0.13721300303234635,0.0,0.9905415649021728,-0.0,1.0,0.0,1.0,1.0,1.0, 1.0
908,0.0228,0.132,3.45,0.132,3.45,0.17639892216156722,0.0,0.9843187594779637,-0.0,1.0,0.0,1.0,1.0,1.0, 1.0
909,0.0228,0.132,3.45,0.132,3.45,0.21544391109707692,0.0,0.9765162165428667,-0.0,1.0,0.0,1.0,1.0,1.0, 1.0
910,0.0228,0.132,3.45,0.132,3.45,0.2542395995753306,0.0,0.967141264763207,-0.0,1.0,0.0,1.0,1.0,1.0, 1.0
911,0.0228,0.132,3.45,0.132,3.45,0.29267004188890683,0.0,0.9562134942473598,-0.0,1.0,0.0,1.0,1.0,1.0, 1.0
912,0.0228,0.132,3.45,0.132,3.45,0.3306054994245039,0.0,0.9437690415299042,-0.0,1.0,0.0,1.0,1.0,1.0, 1.0
913,0.0228,0.132,3.45,0.132,3.45,0.36790689634907014,0.0,0.9298626326607574,-0.0,1.0,0.0,1.0,1.0,1.0, 1.0
914,0.0228,0.132,3.45,0.132,3.45,0.4044500450766438,0.0,0.9145600915399168,-0.0,1.0,0.0,1.0,1.0,1.0, 1.0
915,0.0228,0.132,3.45,0.132,3.45,0.4401023395441411,0.0,0.8979476213720783,-0.0,1.0,0.0,1.0,1.0,1.0, 1.0
916,0.0228,0.132,3.45,0.132,3.45,0.4747279887056869,0.0,0.8801325677075319,-0.0,1.0,0.0,1.0,1.0,1.0, 1.0
917,0.0228,0.132,3.45,0.132,3.45,0.5082044543967185,0.0,0.8612364556446352,-0.0,1.0,0.0,1.0,1.0,1.0, 1.0
918,0.0228,0.132,3.45,0.132,3.45,0.5404000612003093,0.0,0.841408208811099,-0.0,1.0,0.0,1.0,1.0,1.0, 1.0
919,0.0228,0.132,3.45,0.132,3.45,0.5711787036448033,0.0,0.8208257357701706,-0.0,1.0,0.0,1.0,1.0,1.0, 1.0
920,0.0228,0.132,3.45,0.132,3.45,0.6003690767518512,0.0,0.7997230593650089,-0.0,1.0,0.0,1.0,1.0,1.0, 1.0
921,0.0228,0.132,3.45,0.132,3.45,0.627773044273059,0.0,0.7783964317005415,-0.0,1.0,0.0,1.0,1.0,1.0, 1.0
922,0.0228,0.132,3.45,0.132,3.45,0.6531771659562164,0.0,0.7572051174374121,-0.0,1.0,0.0,1.0,1.0,1.0, 1.0
923,0.0228,0.132,3.45,0.132,3.45,0.6763496124304389,0.0,0.7365807503357626,-0.0,1.0,0.0,1.0,1.0,1.0, 1.0
924,0.0228,0.132,3.45,0.132,3.45,0.6972632000998199,0.0,0.7168151991877393,-0.0,1.0,0.0,1.0,1.0,1.0, 1.0
925,0.0228,0.132,3.45,0.132,3.45,0.019122947509914976,0.0,0.9998171397203255,-0.0,1.0,0.0,1.0,1.0,1.0, 1.0
926,0.0228,0.132,3.45,0.132,3.45,0.057462714045581786,0.0,0.9983476531221555,-0.0,1.0,0.0,1.0,1.0,1.0, 1.0
927,0.0228,0.132,3.45,0.132,3.45,0.09587959123011233,0.0,0.9953929394894995,-0.0,1.0,0.0,1.0,1.0,1.0, 1.0
928,0.0228,0.132,3.45,0.132,3.45,0.13433665829994682,0.0,0.9909357508117281,-0.0,1.0,0.0,1.0,1.0,1.0, 1.0
929,0.0228,0.132,3.45,0.132,3.45,0.17278700705356076,0.0,0.9849592124516999,-0.0,1.0,0.0,1.0,1.0,1.0, 1.0
930,0.0228,0.132,3.45,0.132,3.45,0.21115360837528357,0.0,0.9774528907676816,-0.0,1.0,0.0,1.0,1.0,1.0, 1.0
931,0.0228,0.132,3.45,0.132,3.45,0.24933774280102816,0.0,0.9684165890849291,-0.0,1.0,0.0,1.0,1.0,1.0, 1.0
932,0.0228,0.132,3.45,0.132,3.45,0.2872304357628781,0.0,0.95786151231348,-0.0,1.0,0.0,1.0,1.0,1.0, 1.0
933,0.0228,0.132,3.45,0.132,3.45,0.32470558475248495,0.0,0.9458151422083213,-0.0,1.0,0.0,1.0,1.0,1.0, 1.0
934,0.0228,0.132,3.45,0.132,3.45,0.36163381324464333,0.0,0.9323202159763235,-0.0,1.0,0.0,1.0,1.0,1.0, 1.0
935,0.0228,0.132,3.45,0.132,3.45,0.3978892358025304,0.0,0.9174334613651708,-0.0,1.0,0.0,1.0,1.0,1.0, 1.0
936,0.0228,0.132,3.45,0.132,3.45,0.433340737712902,0.0,0.9012301620776114,-0.0,1.0,0.0,1.0,1.0,1.0, 1.0
937,0.0228,0.132,3.45,0.132,3.45,0.4678576394208532,0.0,0.8838038409259981,-0.0,1.0,0.0,1.0,1.0,1.0, 1.0
938,0.0228,0.132,3.45,0.132,3.45,0.5013122975134559,0.0,0.8652664216076922,-0.0,1.0,0.0,1.0,1.0,1.0, 1.0
939,0.0228,0.132,3.45,0.132,3.45,0.5335970101850079,0.0,0.8457388667441154,-0.0,1.0,0.0,1.0,1.0,1.0, 1.0
940,0.0228,0.132,3.45,0.132,3.45,0.5645845628357957,0.0,0.8253752306723974,-0.0,1.0,0.0,1.0,1.0,1.0, 1.0
941,0.0228,0.132,3.45,0.132,3.45,0.5941234164499251,0.0,0.8043738969073208,-0.0,1.0,0.0,1.0,1.0,1.0, 1.0
942,0.0228,0.132,3.45,0.132,3.45,0.622103650918898,0.0,0.7829348935341801,-0.0,1.0,0.0,1.0,1.0,1.0, 1.0
943,0.0228,0.132,3.45,0.132,3.45,0.6484195560790653,0.0,0.7612831794373417,-0.0,1.0,0.0,1.0,1.0,1.0, 1.0
944,0.0228,0.132,3.45,0.132,3.45,0.6730182627149572,0.0,0.7396258635635592,-0.0,1.0,0.0,1.0,1.0,1.0, 1.0
945,0.0228,0.132,3.45,0.132,3.45,0.6960402975677757,0.0,0.7180027187704529,-0.0,1.0,0.0,1.0,1.0,1.0, 1.0
946,0.0228,0.132,3.45,0.132,3.45,0.01884355493135744,0.0,0.9998224444557888,-0.0,1.0,0.0,1.0,1.0,1.0, 1.0
947,0.0228,0.132,3.45,0.132,3.45,0.05663161133655819,0.0,0.9983951425149389,-0.0,1.0,0.0,1.0,1.0,1.0, 1.0
948,0.0228,0.132,3.45,0.132,3.45,0.0945130202837892,0.0,0.9955236255342391,-0.0,1.0,0.0,1.0,1.0,1.0, 1.0
949,0.0228,0.132,3.45,0.132,3.45,0.13245675756687333,0.0,0.9911887849319475,-0.0,1.0,0.0,1.0,1.0,1.0, 1.0
950,0.0228,0.132,3.45,0.132,3.45,0.17042167000900396,0.0,0.9853712266914141,-0.0,1.0,0.0,1.0,1.0,1.0, 1.0
951,0.0228,0.132,3.45,0.132,3.45,0.2083356336827165,0.0,0.9780573928650717,-0.0,1.0,0.0,1.0,1.0,1.0, 1.0
952,0.0228,0.132,3.45,0.132,3.45,0.24610632983080008,0.0,0.9692428356285197,-0.0,1.0,0.0,1.0,1.0,1.0, 1.0
953,0.0228,0.132,3.45,0.132,3.45,0.28363339209734956,0.0,0.958932791642538,-0.0,1.0,0.0,1.0,1.0,1.0, 1.0
954,0.0228,0.132,3.45,0.132,3.45,0.32079353876913713,0.0,0.9471491463776833,-0.0,1.0,0.0,1.0,1.0,1.0, 1.0
955,0.0228,0.132,3.45,0.132,3.45,0.3574627814002986,0.0,0.9339273847112324,-0.0,1.0,0.0,1.0,1.0,1.0, 1.0
956,0.0228,0.132,3.45,0.132,3.45,0.39351625523830946,0.0,0.9193176583005559,-0.0,1.0,0.0,1.0,1.0,1.0, 1.0
957,0.0228,0.132,3.45,0.132,3.45,0.42882550048949913,0.0,0.9033873422458003,-0.0,1.0,0.0,1.0,1.0,1.0, 1.0
958,0.0228,0.132,3.45,0.132,3.45,0.4632714471224287,0.0,0.8862164330913136,-0.0,1.0,0.0,1.0,1.0,1.0, 1.0
959,0.0228,0.132,3.45,0.132,3.45,0.4967277644492771,0.0,0.8679064051066933,-0.0,1.0,0.0,1.0,1.0,1.0, 1.0
960,0.0228,0.132,3.45,0.132,3.45,0.5290940008455516,0.0,0.8485632199602144,-0.0,1.0,0.0,1.0,1.0,1.0, 1.0
961,0.0228,0.132,3.45,0.132,3.45,0.5602510547609033,0.0,0.8283228571271561,-0.0,1.0,0.0,1.0,1.0,1.0, 1.0
962,0.0228,0.132,3.45,0.132,3.45,0.59008238475271,0.0,0.8073430368836748,-0.0,1.0,0.0,1.0,1.0,1.0, 1.0
963,0.0228,0.132,3.45,0.132,3.45,0.6185208127123115,0.0,0.78576841641905,-0.0,1.0,0.0,1.0,1.0,1.0, 1.0
964,0.0228,0.132,3.45,0.132,3.45,0.6455090341554326,0.0,0.7637526345772696,-0.0,1.0,0.0,1.0,1.0,1.0, 1.0
965,0.0228,0.132,3.45,0.132,3.45,0.6710745200962225,0.0,0.7413899031397884,-0.0,1.0,0.0,1.0,1.0,1.0, 1.0
966,0.0228,0.132,3.45,0.132,3.45,0.6953581007306332,0.0,0.7186634203493918,-0.0,1.0,0.0,1.0,1.0,1.0, 1.0
967,0.0228,0.132,3.45,0.132,3.45,0.01866065369632423,0.0,0.9998258748420276,-0.0,1.0,0.0,1.0,1.0,1.0, 1.0
968,0.0228,0.132,3.45,0.132,3.45,0.05608910863453038,0.0,0.998425766841273,-0.0,1.0,0.0,1.0,1.0,1.0, 1.0
969,0.0228,0.132,3.45,0.132,3.45,0.09362199181256194,0.0,0.995607815682987,-0.0,1.0,0.0,1.0,1.0,1.0, 1.0
970,0.0228,0.132,3.45,0.132,3.45,0.13122985968711273,0.0,0.9913519677321979,-0.0,1.0,0.0,1.0,1.0,1.0, 1.0
971,0.0228,0.132,3.45,0.132,3.45,0.16887273998590865,0.0,0.9856378633603986,-0.0,1.0,0.0,1.0,1.0,1.0, 1.0
972,0.0228,0.132,3.45,0.132,3.45,0.20648232822552703,0.0,0.9784503299251146,-0.0,1.0,0.0,1.0,1.0,1.0, 1.0
973,0.0228,0.132,3.45,0.132,3.45,0.2439732673462569,0.0,0.9697819573596902,-0.0,1.0,0.0,1.0,1.0,1.0, 1.0
974,0.0228,0.132,3.45,0.132,3.45,0.2812484419813808,0.0,0.959634989922234,-0.0,1.0,0.0,1.0,1.0,1.0, 1.0
975,0.0228,0.132,3.45,0.132,3.45,0.3181886772424718,0.0,0.9480274076600772,-0.0,1.0,0.0,1.0,1.0,1.0, 1.0
976,0.0228,0.132,3.45,0.132,3.45,0.35467299499127936,0.0,0.9349904099101315,-0.0,1.0,0.0,1.0,1.0,1.0, 1.0
977,0.0228,0.132,3.45,0.132,3.45,0.3905843095232083,0.0,0.920567160588666,-0.0,1.0,0.0,1.0,1.0,1.0, 1.0
978,0.0228,0.132,3.45,0.132,3.45,0.42579600117431377,0.0,0.9048191893323018,-0.0,1.0,0.0,1.0,1.0,1.0, 1.0
979,0.0228,0.132,3.45,0.132,3.45,0.4601958762596965,0.0,0.8878174111119752,-0.0,1.0,0.0,1.0,1.0,1.0, 1.0
980,0.0228,0.132,3.45,0.132,3.45,0.4936673062625176,0.0,0.869650844148104,-0.0,1.0,0.0,1.0,1.0,1.0, 1.0
981,0.0228,0.132,3.45,0.132,3.45,0.5260938122000244,0.0,0.8504265404870933,-0.0,1.0,0.0,1.0,1.0,1.0, 1.0
982,0.0228,0.132,3.45,0.132,3.45,0.5573857915465688,0.0,0.8302536235283802,-0.0,1.0,0.0,1.0,1.0,1.0, 1.0
983,0.0228,0.132,3.45,0.132,3.45,0.587459889224537,0.0,0.8092532845483512,-0.0,1.0,0.0,1.0,1.0,1.0, 1.0
984,0.0228,0.132,3.45,0.132,3.45,0.616246870457455,0.0,0.7875530424367573,-0.0,1.0,0.0,1.0,1.0,1.0, 1.0
985,0.0228,0.132,3.45,0.132,3.45,0.6437169906515092,0.0,0.7652636381970365,-0.0,1.0,0.0,1.0,1.0,1.0, 1.0
986,0.0228,0.132,3.45,0.132,3.45,0.6699118628965679,0.0,0.7424406346304397,-0.0,1.0,0.0,1.0,1.0,1.0, 1.0
987,0.0228,0.132,3.45,0.132,3.45,0.6949553942286487,0.0,0.7190528492624889,-0.0,1.0,0.0,1.0,1.0,1.0, 1.0
988,0.0228,0.132,3.45,0.132,3.45,0.01853912506223242,0.0,0.9998281356522865,-0.0,1.0,0.0,1.0,1.0,1.0, 1.0
989,0.0228,0.132,3.45,0.132,3.45,0.055730732965590224,0.0,0.9984458349871155,-0.0,1.0,0.0,1.0,1.0,1.0, 1.0
990,0.0228,0.132,3.45,0.132,3.45,0.09303344043457534,0.0,0.9956629846292904,-0.0,1.0,0.0,1.0,1.0,1.0, 1.0
991,0.0228,0.132,3.45,0.132,3.45,0.13041846435677862,0.0,0.9914590380619965,-0.0,1.0,0.0,1.0,1.0,1.0, 1.0
992,0.0228,0.132,3.45,0.132,3.45,0.1678431417166431,0.0,0.9858137145417925,-0.0,1.0,0.0,1.0,1.0,1.0, 1.0
993,0.0228,0.132,3.45,0.132,3.45,0.20524283807926216,0.0,0.9787110796436146,-0.0,1.0,0.0,1.0,1.0,1.0, 1.0
994,0.0228,0.132,3.45,0.132,3.45,0.24254007254595072,0.0,0.9701413882570957,-0.0,1.0,0.0,1.0,1.0,1.0, 1.0
995,0.0228,0.132,3.45,0.132,3.45,0.2796340313495195,0.0,0.9601066651738316,-0.0,1.0,0.0,1.0,1.0,1.0, 1.0
996,0.0228,0.132,3.45,0.132,3.45,0.31641286363376714,0.0,0.9486215787800103,-0.0,1.0,0.0,1.0,1.0,1.0, 1.0
997,0.0228,0.132,3.45,0.132,3.45,0.3527608845863779,0.0,0.9357135022568801,-0.0,1.0,0.0,1.0,1.0,1.0, 1.0
998,0.0228,0.132,3.45,0.132,3.45,0.38856545609128523,0.0,0.9214211232289888,-0.0,1.0,0.0,1.0,1.0,1.0, 1.0
999,0.0228,0.132,3.45,0.132,3.45,0.4237084899638238,0.0,0.9057986064973694,-0.0,1.0,0.0,1.0,1.0,1.0, 1.0
1000,0.0228,0.132,3.45,0.132,3.45,0.45807214271105834,0.0,0.8889150196009177,-0.0,1.0,0.0,1.0,1.0,1.0, 1.0
1001,0.0228,0.132,3.45,0.132,3.45,0.49155171585839236,0.0,0.8708483855624182,-0.0,1.0,0.0,1.0,1.0,1.0, 1.0
1002,0.0228,0.132,3.45,0.132,3.45,0.5240377878583299,0.0,0.851695014014141,-0.0,1.0,0.0,1.0,1.0,1.0, 1.0
1003,0.0228,0.132,3.45,0.132,3.45,0.5554448786499528,0.0,0.831553357747739,-0.0,1.0,0.0,1.0,1.0,1.0, 1.0
1004,0.0228,0.132,3.45,0.132,3.45,0.5856993644790217,0.0,0.8105283797923859,-0.0,1.0,0.0,1.0,1.0,1.0, 1.0
1005,0.0228,0.132,3.45,0.132,3.45,0.6147439794722999,0.0,0.7887267205455641,-0.0,1.0,0.0,1.0,1.0,1.0, 1.0
1006,0.0228,0.132,3.45,0.132,3.45,0.6425583109468136,0.0,0.7662367891410448,-0.0,1.0,0.0,1.0,1.0,1.0, 1.0
1007,0.0228,0.132,3.45,0.132,3.45,0.6691790267361846,0.0,0.7431012247173414,-0.0,1.0,0.0,1.0,1.0,1.0, 1.0
1008,0.0228,0.132,3.45,0.132,3.45,0.694710154346007,0.0,0.7192897896178889,-0.0,1.0,0.0,1.0,1.0,1.0, 1.0
1009,0.0228,0.132,3.45,0.132,3.45,0.018456584274048466,0.0,0.9998296627410765,-0.0,1.0,0.0,1.0,1.0,1.0, 1.0
1010,0.0228,0.132,3.45,0.132,3.45,0.05548984870103812,0.0,0.998459251392432,-0.0,1.0,0.0,1.0,1.0,1.0, 1.0
1011,0.0228,0.132,3.45,0.132,3.45,0.09263868704096305,0.0,0.9956997909326518,-0.0,1.0,0.0,1.0,1.0,1.0, 1.0
1012,0.0228,0.132,3.45,0.132,3.45,0.1298711764428814,0.0,0.9915308757317354,-0.0,1.0,0.0,1.0,1.0,1.0, 1.0
1013,0.0228,0.132,3.45,0.132,3.45,0.1671440262016568,0.0,0.9859324898313778,-0.0,1.0,0.0,1.0,1.0,1.0, 1.0
1014,0.0228,0.132,3.45,0.132,3.45,0.20439574714117278,0.0,0.9788883381420996,-0.0,1.0,0.0,1.0,1.0,1.0, 1.0
1015,0.0228,0.132,3.45,0.132,3.45,0.2415491361942164,0.0,0.9703885895886389,-0.0,1.0,0.0,1.0,1.0,1.0, 1.0
1016,0.0228,0.132,3.45,0.132,3.45,0.27850527525061386,0.0,0.9604346993198339,-0.0,1.0,0.0,1.0,1.0,1.0, 1.0
1017,0.0228,0.132,3.45,0.132,3.45,0.31516040360851955,0.0,0.9490384186097605,-0.0,1.0,0.0,1.0,1.0,1.0, 1.0
1018,0.0228,0.132,3.45,0.132,3.45,0.35140379060255433,0.0,0.9362239988112652,-0.0,1.0,0.0,1.0,1.0,1.0, 1.0
1019,0.0228,0.132,3.45,0.132,3.45,0.38712397833476336,0.0,0.9220276706250553,-0.0,1.0,0.0,1.0,1.0,1.0, 1.0
1020,0.0228,0.132,3.45,0.132,3.45,0.42221095771183315,0.0,0.9064976046234522,-0.0,1.0,0.0,1.0,1.0,1.0, 1.0
1021,0.0228,0.132,3.45,0.132,3.45,0.45654488708044255,0.0,0.8897003799486128,-0.0,1.0,0.0,1.0,1.0,1.0, 1.0
1022,0.0228,0.132,3.45,0.132,3.45,0.4900250747004267,0.0,0.871708337785547,-0.0,1.0,0.0,1.0,1.0,1.0, 1.0
1023,0.0228,0.132,3.45,0.132,3.45,0.5225618552846159,0.0,0.8526013766124825,-0.0,1.0,0.0,1.0,1.0,1.0, 1.0
1024,0.0228,0.132,3.45,0.132,3.45,0.554065508857247,0.0,0.8324730697714852,-0.0,1.0,0.0,1.0,1.0,1.0, 1.0
1025,0.0228,0.132,3.45,0.132,3.45,0.5844593004104419,0.0,0.8114230254089028,-0.0,1.0,0.0,1.0,1.0,1.0, 1.0
1026,0.0228,0.132,3.45,0.132,3.45,0.6136932052125759,0.0,0.7895445838430629,-0.0,1.0,0.0,1.0,1.0,1.0, 1.0
1027,0.0228,0.132,3.45,0.132,3.45,0.6417541956584771,0.0,0.7669103939540401,-0.0,1.0,0.0,1.0,1.0,1.0, 1.0
1028,0.0228,0.132,3.45,0.132,3.45,0.6686801458595798,0.0,0.7435501748592431,-0.0,1.0,0.0,1.0,1.0,1.0, 1.0
1029,0.0228,0.132,3.45,0.132,3.45,0.6945450198235923,0.0,0.7194492445185038,-0.0,1.0,0.0,1.0,1.0,1.0, 1.0
1030,0.0228,0.132,3.45,0.132,3.45,0.018399958668003855,0.0,0.9998307064303514,-0.0,1.0,0.0,1.0,1.0,1.0, 1.0
1031,0.0228,0.132,3.45,0.132,3.45,0.05532518846087858,0.0,0.9984683888445183,-0.0,1.0,0.0,1.0,1.0,1.0, 1.0
1032,0.0228,0.132,3.45,0.132,3.45,0.09236927424141923,0.0,0.9957248200060664,-0.0,1.0,0.0,1.0,1.0,1.0, 1.0
1033,0.0228,0.132,3.45,0.132,3.45,0.12949402981961436,0.0,0.991580201618143,-0.0,1.0,0.0,1.0,1.0,1.0, 1.0
1034,0.0228,0.132,3.45,0.132,3.45,0.1666554649030154,0.0,0.9860151905614638,-0.0,1.0,0.0,1.0,1.0,1.0, 1.0
1035,0.0228,0.132,3.45,0.132,3.45,0.2037969719719968,0.0,0.9790131736677731,-0.0,1.0,0.0,1.0,1.0,1.0, 1.0
1036,0.0228,0.132,3.45,0.132,3.45,0.24083858600987576,0.0,0.9705651835341941,-0.0,1.0,0.0,1.0,1.0,1.0, 1.0
1037,0.0228,0.132,3.45,0.132,3.45,0.277685154328026,0.0,0.9606721371341111,-0.0,1.0,0.0,1.0,1.0,1.0, 1.0
1038,0.0228,0.132,3.45,0.132,3.45,0.3142396270370307,0.0,0.9493436979301163,-0.0,1.0,0.0,1.0,1.0,1.0, 1.0
1039,0.0228,0.132,3.45,0.132,3.45,0.35039671629902275,0.0,0.9366013779654939,-0.0,1.0,0.0,1.0,1.0,1.0, 1.0
1040,0.0228,0.132,3.45,0.132,3.45,0.38604519094484435,0.0,0.9224798699962826,-0.0,1.0,0.0,1.0,1.0,1.0, 1.0
1041,0.0228,0.132,3.45,0.132,3.45,0.4210803599100915,0.0,0.9070233351452365,-0.0,1.0,0.0,1.0,1.0,1.0, 1.0
1042,0.0228,0.132,3.45,0.132,3.45,0.4553922783009972,0.0,0.8902908922727599,-0.0,1.0,0.0,1.0,1.0,1.0, 1.0
1043,0.0228,0.132,3.45,0.132,3.45,0.48887318258895834,0.0,0.8723548654907262,-0.0,1.0,0.0,1.0,1.0,1.0, 1.0
1044,0.0228,0.132,3.45,0.132,3.45,0.5214403548724992,0.0,0.8532877335989555,-0.0,1.0,0.0,1.0,1.0,1.0, 1.0
1045,0.0228,0.132,3.45,0.132,3.45,0.5530144448189226,0.0,0.8331716652777018,-0.0,1.0,0.0,1.0,1.0,1.0, 1.0
1046,0.0228,0.132,3.45,0.132,3.45,0.583521517257043,0.0,0.8120976781755003,-0.0,1.0,0.0,1.0,1.0,1.0, 1.0
1047,0.0228,0.132,3.45,0.132,3.45,0.6129093624103382,0.0,0.7901532215145065,-0.0,1.0,0.0,1.0,1.0,1.0, 1.0
1048,0.0228,0.132,3.45,0.132,3.45,0.6411684892045532,0.0,0.7674001358164791,-0.0,1.0,0.0,1.0,1.0,1.0, 1.0
1049,0.0228,0.132,3.45,0.132,3.45,0.6683192460552065,0.0,0.7438745763582729,-0.0,1.0,0.0,1.0,1.0,1.0, 1.0
1050,0.0228,0.132,3.45,0.132,3.45,0.6944195192416495,0.0,0.7195703796684495,-0.0,1.0,0.0,1.0,1.0,1.0, 1.0
1051,0.0228,0.132,3.45,0.132,3.45,0.018360623987263455,0.0,0.9998314295353983,-0.0,1.0,0.0,1.0,1.0,1.0, 1.0
1052,0.0228,0.132,3.45,0.132,3.45,0.055211742193778696,0.0,0.9984746684437856,-0.0,1.0,0.0,1.0,1.0,1.0, 1.0
1053,0.0228,0.132,3.45,0.132,3.45,0.0921835456767915,0.0,0.9957420318066598,-0.0,1.0,0.0,1.0,1.0,1.0, 1.0
1054,0.0228,0.132,3.45,0.132,3.45,0.12923235184056045,0.0,0.9916143399718248,-0.0,1.0,0.0,1.0,1.0,1.0, 1.0
1055,0.0228,0.132,3.45,0.132,3.45,0.16631196315591762,0.0,0.9860731874010289,-0.0,1.0,0.0,1.0,1.0,1.0, 1.0
1056,0.0228,0.132,3.45,0.132,3.45,0.2033655794691688,0.0,0.9791028756403328,-0.0,1.0,0.0,1.0,1.0,1.0, 1.0
1057,0.0228,0.132,3.45,0.132,3.45,0.2403152046287573,0.0,0.9706949069734726,-0.0,1.0,0.0,1.0,1.0,1.0, 1.0
1058,0.0228,0.132,3.45,0.132,3.45,0.2770714162867793,0.0,0.9608493275622553,-0.0,1.0,0.0,1.0,1.0,1.0, 1.0
1059,0.0228,0.132,3.45,0.132,3.45,0.31353963197906565,0.0,0.9495751150795982,-0.0,1.0,0.0,1.0,1.0,1.0, 1.0
1060,0.0228,0.132,3.45,0.132,3.45,0.34961820022727974,0.0,0.9368922638541944,-0.0,1.0,0.0,1.0,1.0,1.0, 1.0
1061,0.0228,0.132,3.45,0.132,3.45,0.38519947495227125,0.0,0.9228333351675668,-0.0,1.0,0.0,1.0,1.0,1.0, 1.0
1062,0.0228,0.132,3.45,0.132,3.45,0.42018494317589195,0.0,0.9074384902175312,-0.0,1.0,0.0,1.0,1.0,1.0, 1.0
1063,0.0228,0.132,3.45,0.132,3.45,0.4544696819916689,0.0,0.8907622062876217,-0.0,1.0,0.0,1.0,1.0,1.0, 1.0
1064,0.0228,0.132,3.45,0.132,3.45,0.48795485793726745,0.0,0.8728688656467368,-0.0,1.0,0.0,1.0,1.0,1.0, 1.0
1065,0.0228,0.132,3.45,0.132,3.45,0.5205511861569794,0.0,0.8538304647824192,-0.0,1.0,0.0,1.0,1.0,1.0, 1.0
1066,0.0228,0.132,3.45,0.132,3.45,0.5521778649275642,0.0,0.8337263372858247,-0.0,1.0,0.0,1.0,1.0,1.0, 1.0
1067,0.0228,0.132,3.45,0.132,3.45,0.5827703288927893,0.0,0.8126369077036744,-0.0,1.0,0.0,1.0,1.0,1.0, 1.0
1068,0.0228,0.132,3.45,0.132,3.45,0.612279704750158,0.0,0.7906412354229062,-0.0,1.0,0.0,1.0,1.0,1.0, 1.0
1069,0.0228,0.132,3.45,0.132,3.45,0.6406950169652025,0.0,0.7677954774781881,-0.0,1.0,0.0,1.0,1.0,1.0, 1.0
1070,0.0228,0.132,3.45,0.132,3.45,0.6680294877158874,0.0,0.7441348019962842,-0.0,1.0,0.0,1.0,1.0,1.0, 1.0
1071,0.0228,0.132,3.45,0.132,3.45,0.694325334012099,0.0,0.7196612609755976,-0.0,1.0,0.0,1.0,1.0,1.0, 1.0
1072,0.0228,0.132,3.45,0.132,3.45,0.018333533703758776,0.0,0.9998319266466406,-0.0,1.0,0.0,1.0,1.0,1.0, 1.0
1073,0.0228,0.132,3.45,0.132,3.45,0.055135406943104905,0.0,0.9984788865575568,-0.0,1.0,0.0,1.0,1.0,1.0, 1.0
1074,0.0228,0.132,3.45,0.132,3.45,0.0920575949528206,0.0,0.9957536840059907,-0.0,1.0,0.0,1.0,1.0,1.0, 1.0
1075,0.0228,0.132,3.45,0.132,3.45,0.12905231336824755,0.0,0.9916377869032139,-0.0,1.0,0.0,1.0,1.0,1.0, 1.0
1076,0.0228,0.132,3.45,0.132,3.45,0.16606982775099338,0.0,0.9861139955962268,-0.0,1.0,0.0,1.0,1.0,1.0, 1.0
1077,0.0228,0.132,3.45,0.132,3.45,0.20305108898040766,0.0,0.9791681445307903,-0.0,1.0,0.0,1.0,1.0,1.0, 1.0
1078,0.0228,0.132,3.45,0.132,3.45,0.23992225911383697,0.0,0.9707921042023946,-0.0,1.0,0.0,1.0,1.0,1.0, 1.0
1079,0.0228,0.132,3.45,0.132,3.45,0.27659979240847715,0.0,0.9609852001147507,-0.0,1.0,0.0,1.0,1.0,1.0, 1.0
1080,0.0228,0.132,3.45,0.132,3.45,0.31299023583571367,0.0,0.9497563436331996,-0.0,1.0,0.0,1.0,1.0,1.0, 1.0
1081,0.0228,0.132,3.45,0.132,3.45,0.3489944291686131,0.0,0.9371247987377529,-0.0,1.0,0.0,1.0,1.0,1.0, 1.0
1082,0.0228,0.132,3.45,0.132,3.45,0.38451425785418336,0.0,0.9231190527265953,-0.0,1.0,0.0,1.0,1.0,1.0, 1.0
1083,0.0228,0.132,3.45,0.132,3.45,0.41945145842608994,0.0,0.9077777668704087,-0.0,1.0,0.0,1.0,1.0,1.0, 1.0
1084,0.0228,0.132,3.45,0.132,3.45,0.45370233580971064,0.0,0.8911532923581736,-0.0,1.0,0.0,1.0,1.0,1.0, 1.0
1085,0.0228,0.132,3.45,0.132,3.45,0.4871822399689615,0.0,0.8733003292446564,-0.0,1.0,0.0,1.0,1.0,1.0, 1.0
1086,0.0228,0.132,3.45,0.132,3.45,0.5197999390502689,0.0,0.8542880213156081,-0.0,1.0,0.0,1.0,1.0,1.0, 1.0
1087,0.0228,0.132,3.45,0.132,3.45,0.5514761989903966,0.0,0.8341906268636112,-0.0,1.0,0.0,1.0,1.0,1.0, 1.0
1088,0.0228,0.132,3.45,0.132,3.45,0.5821475280233689,0.0,0.8130831787807942,-0.0,1.0,0.0,1.0,1.0,1.0, 1.0
1089,0.0228,0.132,3.45,0.132,3.45,0.6117581287444532,0.0,0.7910448735154567,-0.0,1.0,0.0,1.0,1.0,1.0, 1.0
1090,0.0228,0.132,3.45,0.132,3.45,0.6403014574034431,0.0,0.7681237163680255,-0.0,1.0,0.0,1.0,1.0,1.0, 1.0
1091,0.0228,0.132,3.45,0.132,3.45,0.667785490425884,0.0,0.7443537725951698,-0.0,1.0,0.0,1.0,1.0,1.0, 1.0
1092,0.0228,0.132,3.45,0.132,3.45,0.6942427218653879,0.0,0.7197409555784202,-0.0,1.0,0.0,1.0,1.0,1.0, 1.0
1093,0.0228,0.132,3.45,0.132,3.45,0.018315535610150344,0.0,0.9998322565087172,-0.0,1.0,0.0,1.0,1.0,1.0, 1.0
1094,0.0228,0.132,3.45,0.132,3.45,0.05508711113313708,0.0,0.9984815522517205,-0.0,1.0,0.0,1.0,1.0,1.0, 1.0
1095,0.0228,0.132,3.45,0.132,3.45,0.09197677324613657,0.0,0.9957611526783061,-0.0,1.0,0.0,1.0,1.0,1.0, 1.0
1096,0.0228,0.132,3.45,0.132,3.45,0.1289323582204044,0.0,0.9916533905572679,-0.0,1.0,0.0,1.0,1.0,1.0, 1.0
1097,0.0228,0.132,3.45,0.132,3.45,0.16590144486151231,0.0,0.98614233789695,-0.0,1.0,0.0,1.0,1.0,1.0, 1.0
1098,0.0228,0.132,3.45,0.132,3.45,0.20282454466234617,0.0,0.9792150959225006,-0.0,1.0,0.0,1.0,1.0,1.0, 1.0
1099,0.0228,0.132,3.45,0.132,3.45,0.23962892544969605,0.0,0.9708645518751954,-0.0,1.0,0.0,1.0,1.0,1.0, 1.0
1100,0.0228,0.132,3.45,0.132,3.45,0.27623245461275503,0.0,0.9610908547159378,-0.0,1.0,0.0,1.0,1.0,1.0, 1.0
1101,0.0228,0.132,3.45,0.132,3.45,0.31254990528228777,0.0,0.9499013405128097,-0.0,1.0,0.0,1.0,1.0,1.0, 1.0
1102,0.0228,0.132,3.45,0.132,3.45,0.3484880093751352,0.0,0.9373132386357058,-0.0,1.0,0.0,1.0,1.0,1.0, 1.0
1103,0.0228,0.132,3.45,0.132,3.45,0.3839501148504216,0.0,0.9233538375435215,-0.0,1.0,0.0,1.0,1.0,1.0, 1.0
1104,0.0228,0.132,3.45,0.132,3.45,0.41883858098661014,0.0,0.9080607045110601,-0.0,1.0,0.0,1.0,1.0,1.0, 1.0
1105,0.0228,0.132,3.45,0.132,3.45,0.4530572299514292,0.0,0.8914814335636709,-0.0,1.0,0.0,1.0,1.0,1.0, 1.0
1106,0.0228,0.132,3.45,0.132,3.45,0.48651803472287614,0.0,0.8736705339482329,-0.0,1.0,0.0,1.0,1.0,1.0, 1.0
1107,0.0228,0.132,3.45,0.132,3.45,0.5191459879206085,0.0,0.8546855815011364,-0.0,1.0,0.0,1.0,1.0,1.0, 1.0
1108,0.0228,0.132,3.45,0.132,3.45,0.5508654561738611,0.0,0.834594062520435,-0.0,1.0,0.0,1.0,1.0,1.0, 1.0
1109,0.0228,0.132,3.45,0.132,3.45,0.5816040225321565,0.0,0.8134720406838917,-0.0,1.0,0.0,1.0,1.0,1.0, 1.0
1110,0.0228,0.132,3.45,0.132,3.45,0.6113090585837649,0.0,0.7913919603416697,-0.0,1.0,0.0,1.0,1.0,1.0, 1.0
1111,0.0228,0.132,3.45,0.132,3.45,0.6399711154919445,0.0,0.7683989662512543,-0.0,1.0,0.0,1.0,1.0,1.0, 1.0
1112,0.0228,0.132,3.45,0.132,3.45,0.6675840507014654,0.0,0.7445344419494798,-0.0,1.0,0.0,1.0,1.0,1.0, 1.0
1113,0.0228,0.132,3.45,0.132,3.45,0.6941739043966405,0.0,0.7198073287031217,-0.0,1.0,0.0,1.0,1.0,1.0, 1.0
1114,0.0228,0.132,3.45,0.132,3.45,0.01830516713861144,0.0,0.9998324463909077,-0.0,1.0,0.0,1.0,1.0,1.0, 1.0
1115,0.0228,0.132,3.45,0.132,3.45,0.05506229939208368,0.0,0.9984829208282214,-0.0,1.0,0.0,1.0,1.0,1.0, 1.0
1116,0.0228,0.132,3.45,0.132,3.45,0.09193536708483133,0.0,0.9957649764271573,-0.0,1.0,0.0,1.0,1.0,1.0, 1.0
1117,0.0228,0.132,3.45,0.132,3.45,0.12886378012667474,0.0,0.9916623045026285,-0.0,1.0,0.0,1.0,1.0,1.0, 1.0
1118,0.0228,0.132,3.45,0.132,3.45,0.16579558125087332,0.0,0.9861601417810826,-0.0,1.0,0.0,1.0,1.0,1.0, 1.0
1119,0.0228,0.132,3.45,0.132,3.45,0.2026691592136701,0.0,0.9792472680092725,-0.0,1.0,0.0,1.0,1.0,1.0, 1.0
1120,0.0228,0.132,3.45,0.132,3.45,0.23941395198955528,0.0,0.9709175864061496,-0.0,1.0,0.0,1.0,1.0,1.0, 1.0
1121,0.0228,0.132,3.45,0.132,3.45,0.27595379312726376,0.0,0.9611709026279746,-0.0,1.0,0.0,1.0,1.0,1.0, 1.0
1122,0.0228,0.132,3.45,0.132,3.45,0.3122033590556144,0.0,0.9500152959791707,-0.0,1.0,0.0,1.0,1.0,1.0, 1.0
1123,0.0228,0.132,3.45,0.132,3.45,0.3480752217541331,0.0,0.9374666074057311,-0.0,1.0,0.0,1.0,1.0,1.0, 1.0
1124,0.0228,0.132,3.45,0.132,3.45,0.38347744760122526,0.0,0.9235502407455967,-0.0,1.0,0.0,1.0,1.0,1.0, 1.0
1125,0.0228,0.132,3.45,0.132,3.45,0.41831768262011054,0.0,0.908300785206828,-0.0,1.0,0.0,1.0,1.0,1.0, 1.0
1126,0.0228,0.132,3.45,0.132,3.45,0.4525019319255111,0.0,0.891763422440997,-0.0,1.0,0.0,1.0,1.0,1.0, 1.0
1127,0.0228,0.132,3.45,0.132,3.45,0.48594610964062374,0.0,0.8739887748278824,-0.0,1.0,0.0,1.0,1.0,1.0, 1.0
1128,0.0228,0.132,3.45,0.132,3.45,0.5185830363107499,0.0,0.8550272711736882,-0.0,1.0,0.0,1.0,1.0,1.0, 1.0
1129,0.0228,0.132,3.45,0.132,3.45,0.5503319155510661,0.0,0.8349459759325115,-0.0,1.0,0.0,1.0,1.0,1.0, 1.0
1130,0.0228,0.132,3.45,0.132,3.45,0.5811179015651375,0.0,0.8138193807476762,-0.0,1.0,0.0,1.0,1.0,1.0, 1.0
1131,0.0228,0.132,3.45,0.132,3.45,0.6109008023453713,0.0,0.7917071489469965,-0.0,1.0,0.0,1.0,1.0,1.0, 1.0
1132,0.0228,0.132,3.45,0.132,3.45,0.6396638513781783,0.0,0.7686547711684588,-0.0,1.0,0.0,1.0,1.0,1.0, 1.0
1133,0.0228,0.132,3.45,0.132,3.45,0.6673945218544343,0.0,0.744704338780627,-0.0,1.0,0.0,1.0,1.0,1.0, 1.0
1134,0.0228,0.132,3.45,0.132,3.45,0.6941122829878943,0.0,0.7198667505902278,-0.0,1.0,0.0,1.0,1.0,1.0, 1.0
1135,0.0228,0.132,3.45,0.132,3.45,0.018302234291976086,0.0,0.9998325000818495,-0.0,1.0,0.0,1.0,1.0,1.0, 1.0
1136,0.0228,0.132,3.45,0.132,3.45,0.05505888077987321,0.0,0.9984831093450043,-0.0,1.0,0.0,1.0,1.0,1.0, 1.0
1137,0.0228,0.132,3.45,0.132,3.45,0.09192874041045976,0.0,0.9957655882217191,-0.0,1.0,0.0,1.0,1.0,1.0, 1.0
1138,0.0228,0.132,3.45,0.132,3.45,0.12884319488728313,0.0,0.991664979280421,-0.0,1.0,0.0,1.0,1.0,1.0, 1.0
