e_no,c,k1,k2,k3,k4,ax,ay,az,bx,by,bz,pvol,m_g,m_c
1,0.0228,0.132,3.45,0.132,3.45,0.0630311134494284,0.0,0.9980115624266712,-0.0,1.0,0.0,1.0,1.0,1.0, 1.0
2,0.0228,0.132,3.45,0.132,3.45,0.18718423362774606,0.0,0.9823248254427827,-0.0,1.0,0.0,1.0,1.0,1.0, 1.0
3,0.0228,0.132,3.45,0.132,3.45,0.30678364456774604,0.0,0.9517792787331161,-0.0,1.0,0.0,1.0,1.0,1.0, 1.0
4,0.0228,0.132,3.45,0.132,3.45,0.4192161250702997,0.0,0.9078864689381833,-0.0,1.0,0.0,1.0,1.0,1.0, 1.0
5,0.0228,0.132,3.45,0.132,3.45,0.5212738957490191,0.0,0.8533894337350568,-0.0,1.0,0.0,1.0,1.0,1.0, 1.0
6,0.0228,0.132,3.45,0.132,3.45,0.6091438456852071,0.0,0.7930597551659249,-0.0,1.0,0.0,1.0,1.0,1.0, 1.0
7,0.0228,0.132,3.45,0.132,3.45,0.6782840189729248,0.0,0.7347998296175202,-0.0,1.0,0.0,1.0,1.0,1.0, 1.0
8,0.0228,0.132,3.45,0.132,3.45,0.05831376590907031,0.0,0.9982983044689108,-0.0,1.0,0.0,1.0,1.0,1.0, 1.0
9,0.0228,0.132,3.45,0.132,3.45,0.17433072983540968,0.0,0.9846871567330678,-0.0,1.0,0.0,1.0,1.0,1.0, 1.0
10,0.0228,0.132,3.45,0.132,3.45,0.2880410230085347,0.0,0.9576180705605951,-0.0,1.0,0.0,1.0,1.0,1.0, 1.0
11,0.0228,0.132,3.45,0.132,3.45,0.39726706580199966,0.0,0.9177030447966649,-0.0,1.0,0.0,1.0,1.0,1.0, 1.0
12,0.0228,0.132,3.45,0.132,3.45,0.49920913698010316,0.0,0.8664815275328035,-0.0,1.0,0.0,1.0,1.0,1.0, 1.0
13,0.0228,0.132,3.45,0.132,3.45,0.5910388908392662,0.0,0.8066430620265012,-0.0,1.0,0.0,1.0,1.0,1.0, 1.0
14,0.0228,0.132,3.45,0.132,3.45,0.6710164194512731,0.0,0.7414424892240754,-0.0,1.0,0.0,1.0,1.0,1.0, 1.0
15,0.0228,0.132,3.45,0.132,3.45,0.05615976287383219,0.0,0.9984217951517058,-0.0,1.0,0.0,1.0,1.0,1.0, 1.0
16,0.0228,0.132,3.45,0.132,3.45,0.16855993621176665,0.0,0.9856914060213191,-0.0,1.0,0.0,1.0,1.0,1.0, 1.0
17,0.0228,0.132,3.45,0.132,3.45,0.27965896782147,0.0,0.9600994019980588,-0.0,1.0,0.0,1.0,1.0,1.0, 1.0
18,0.0228,0.132,3.45,0.132,3.45,0.3874981919296186,0.0,0.9218704633793602,-0.0,1.0,0.0,1.0,1.0,1.0, 1.0
19,0.0228,0.132,3.45,0.132,3.45,0.48954474836524625,0.0,0.8719781759585545,-0.0,1.0,0.0,1.0,1.0,1.0, 1.0
20,0.0228,0.132,3.45,0.132,3.45,0.5835275601530499,0.0,0.8120933361023404,-0.0,1.0,0.0,1.0,1.0,1.0, 1.0
21,0.0228,0.132,3.45,0.132,3.45,0.6681867730615725,0.0,0.7439935727582346,-0.0,1.0,0.0,1.0,1.0,1.0, 1.0
22,0.0228,0.132,3.45,0.132,3.45,0.055284723555672766,0.0,0.9984706301846704,-0.0,1.0,0.0,1.0,1.0,1.0, 1.0
23,0.0228,0.132,3.45,0.132,3.45,0.16621108351901356,0.0,0.9860901965415919,-0.0,1.0,0.0,1.0,1.0,1.0, 1.0
24,0.0228,0.132,3.45,0.132,3.45,0.276190322817835,0.0,0.9611029630491106,-0.0,1.0,0.0,1.0,1.0,1.0, 1.0
25,0.0228,0.132,3.45,0.132,3.45,0.3833912198345399,0.0,0.9235860396052896,-0.0,1.0,0.0,1.0,1.0,1.0, 1.0
26,0.0228,0.132,3.45,0.132,3.45,0.48552147173632154,0.0,0.874224742547931,-0.0,1.0,0.0,1.0,1.0,1.0, 1.0
27,0.0228,0.132,3.45,0.132,3.45,0.5804923339545777,0.0,0.8142657122954196,-0.0,1.0,0.0,1.0,1.0,1.0, 1.0
28,0.0228,0.132,3.45,0.132,3.45,0.6670683260581409,0.0,0.7449965425221715,-0.0,1.0,0.0,1.0,1.0,1.0, 1.0
29,0.0228,0.132,3.45,0.132,3.45,0.05504954805008914,0.0,0.9984836239315499,-0.0,1.0,0.0,1.0,1.0,1.0, 1.0
30,0.0228,0.132,3.45,0.132,3.45,0.1655079704067632,0.0,0.9862084524743407,-0.0,1.0,0.0,1.0,1.0,1.0, 1.0
31,0.0228,0.132,3.45,0.132,3.45,0.27498227028464545,0.0,0.961449297170216,-0.0,1.0,0.0,1.0,1.0,1.0, 1.0
32,0.0228,0.132,3.45,0.132,3.45,0.38174813716795936,0.0,0.9242663900460694,-0.0,1.0,0.0,1.0,1.0,1.0, 1.0
33,0.0228,0.132,3.45,0.132,3.45,0.4837701027233562,0.0,0.8751951140808737,-0.0,1.0,0.0,1.0,1.0,1.0, 1.0
34,0.0228,0.132,3.45,0.132,3.45,0.5791545114537301,0.0,0.8152177941279197,-0.0,1.0,0.0,1.0,1.0,1.0, 1.0
35,0.0228,0.132,3.45,0.132,3.45,0.6665896159018561,0.0,0.7454249016311544,-0.0,1.0,0.0,1.0,1.0,1.0, 1.0
36,0.0228,0.132,3.45,0.132,3.45,0.05521787894367164,0.0,0.998474329086613,-0.0,1.0,0.0,1.0,1.0,1.0, 1.0
37,0.0228,0.132,3.45,0.132,3.45,0.1658152127879343,0.0,0.9861568410795983,-0.0,1.0,0.0,1.0,1.0,1.0, 1.0
38,0.0228,0.132,3.45,0.132,3.45,0.2751126780696245,0.0,0.9614119899217811,-0.0,1.0,0.0,1.0,1.0,1.0, 1.0
39,0.0228,0.132,3.45,0.132,3.45,0.38150702804949194,0.0,0.9243659381158763,-0.0,1.0,0.0,1.0,1.0,1.0, 1.0
40,0.0228,0.132,3.45,0.132,3.45,0.48322993163885075,0.0,0.8754934797977147,-0.0,1.0,0.0,1.0,1.0,1.0, 1.0
41,0.0228,0.132,3.45,0.132,3.45,0.5786199108338349,0.0,0.8155973263729136,-0.0,1.0,0.0,1.0,1.0,1.0, 1.0
42,0.0228,0.132,3.45,0.132,3.45,0.6663796728112761,0.0,0.7456125881876838,-0.0,1.0,0.0,1.0,1.0,1.0, 1.0
43,0.0228,0.132,3.45,0.132,3.45,0.05572577700384339,0.0,0.9984461116040855,-0.0,1.0,0.0,1.0,1.0,1.0, 1.0
44,0.0228,0.132,3.45,0.132,3.45,0.16683734035796083,0.0,0.9859844328701555,-0.0,1.0,0.0,1.0,1.0,1.0, 1.0
45,0.0228,0.132,3.45,0.132,3.45,0.2761383975232907,0.0,0.9611178832033399,-0.0,1.0,0.0,1.0,1.0,1.0, 1.0
46,0.0228,0.132,3.45,0.132,3.45,0.38217204471096833,0.0,0.9240911904360076,-0.0,1.0,0.0,1.0,1.0,1.0, 1.0
47,0.0228,0.132,3.45,0.132,3.45,0.48346040509658683,0.0,0.8753662300453703,-0.0,1.0,0.0,1.0,1.0,1.0, 1.0
48,0.0228,0.132,3.45,0.132,3.45,0.5785924539022164,0.0,0.8156168048093488,-0.0,1.0,0.0,1.0,1.0,1.0, 1.0
49,0.0228,0.132,3.45,0.132,3.45,0.6663359396695383,0.0,0.7456516716971225,-0.0,1.0,0.0,1.0,1.0,1.0, 1.0
50,0.0228,0.132,3.45,0.132,3.45,0.06305708343993609,0.0,0.9980099219086196,-0.0,1.0,0.0,1.0,1.0,1.0, 1.0
51,0.0228,0.132,3.45,0.132,3.45,0.1872686995735249,0.0,0.9823087265010123,-0.0,1.0,0.0,1.0,1.0,1.0, 1.0
52,0.0228,0.132,3.45,0.132,3.45,0.30702499084448875,0.0,0.9517014526609391,-0.0,1.0,0.0,1.0,1.0,1.0, 1.0
53,0.0228,0.132,3.45,0.132,3.45,0.4196231093025173,0.0,0.9076984334784807,-0.0,1.0,0.0,1.0,1.0,1.0, 1.0
54,0.0228,0.132,3.45,0.132,3.45,0.5217307275729118,0.0,0.8531102202565857,-0.0,1.0,0.0,1.0,1.0,1.0, 1.0
55,0.0228,0.132,3.45,0.132,3.45,0.6094816041055757,0.0,0.7928002108078015,-0.0,1.0,0.0,1.0,1.0,1.0, 1.0
56,0.0228,0.132,3.45,0.132,3.45,0.678400892906441,0.0,0.734691927615748,-0.0,1.0,0.0,1.0,1.0,1.0, 1.0
57,0.0228,0.132,3.45,0.132,3.45,0.05855472567477027,0.0,0.9982842000658692,-0.0,1.0,0.0,1.0,1.0,1.0, 1.0
58,0.0228,0.132,3.45,0.132,3.45,0.1749080647378256,0.0,0.9845847697835207,-0.0,1.0,0.0,1.0,1.0,1.0, 1.0
59,0.0228,0.132,3.45,0.132,3.45,0.28886001517994525,0.0,0.957371344688278,-0.0,1.0,0.0,1.0,1.0,1.0, 1.0
60,0.0228,0.132,3.45,0.132,3.45,0.3981867719347252,0.0,0.9173043631511861,-0.0,1.0,0.0,1.0,1.0,1.0, 1.0
61,0.0228,0.132,3.45,0.132,3.45,0.5000386328500379,0.0,0.8660030979491153,-0.0,1.0,0.0,1.0,1.0,1.0, 1.0
62,0.0228,0.132,3.45,0.132,3.45,0.5915955588654241,0.0,0.8062348880634642,-0.0,1.0,0.0,1.0,1.0,1.0, 1.0
63,0.0228,0.132,3.45,0.132,3.45,0.6712034877763798,0.0,0.7412731466853651,-0.0,1.0,0.0,1.0,1.0,1.0, 1.0
64,0.0228,0.132,3.45,0.132,3.45,0.05642476814410527,0.0,0.9984068537123951,-0.0,1.0,0.0,1.0,1.0,1.0, 1.0
65,0.0228,0.132,3.45,0.132,3.45,0.1691655249253035,0.0,0.9855876547404329,-0.0,1.0,0.0,1.0,1.0,1.0, 1.0
66,0.0228,0.132,3.45,0.132,3.45,0.2804836954401804,0.0,0.9598587899228823,-0.0,1.0,0.0,1.0,1.0,1.0, 1.0
67,0.0228,0.132,3.45,0.132,3.45,0.38839907797296647,0.0,0.9214912675819287,-0.0,1.0,0.0,1.0,1.0,1.0, 1.0
68,0.0228,0.132,3.45,0.132,3.45,0.4903397197951259,0.0,0.8715313873815661,-0.0,1.0,0.0,1.0,1.0,1.0, 1.0
69,0.0228,0.132,3.45,0.132,3.45,0.5840557840806914,0.0,0.8117135215591083,-0.0,1.0,0.0,1.0,1.0,1.0, 1.0
70,0.0228,0.132,3.45,0.132,3.45,0.6683632854777186,0.0,0.7438350076632786,-0.0,1.0,0.0,1.0,1.0,1.0, 1.0
71,0.0228,0.132,3.45,0.132,3.45,0.055458214992709934,0.0,0.9984610089481825,-0.0,1.0,0.0,1.0,1.0,1.0, 1.0
72,0.0228,0.132,3.45,0.132,3.45,0.16658229683049394,0.0,0.9860275545757721,-0.0,1.0,0.0,1.0,1.0,1.0, 1.0
73,0.0228,0.132,3.45,0.132,3.45,0.2766925944710847,0.0,0.9609584841005671,-0.0,1.0,0.0,1.0,1.0,1.0, 1.0
74,0.0228,0.132,3.45,0.132,3.45,0.3839523710311267,0.0,0.9233528993724858,-0.0,1.0,0.0,1.0,1.0,1.0, 1.0
75,0.0228,0.132,3.45,0.132,3.45,0.4860310996679205,0.0,0.8739415141504562,-0.0,1.0,0.0,1.0,1.0,1.0, 1.0
76,0.0228,0.132,3.45,0.132,3.45,0.5808340805045821,0.0,0.8140219720157414,-0.0,1.0,0.0,1.0,1.0,1.0, 1.0
77,0.0228,0.132,3.45,0.132,3.45,0.667181725914356,0.0,0.7448949889789442,-0.0,1.0,0.0,1.0,1.0,1.0, 1.0
78,0.0228,0.132,3.45,0.132,3.45,0.05512831497271989,0.0,0.9984792781466567,-0.0,1.0,0.0,1.0,1.0,1.0, 1.0
79,0.0228,0.132,3.45,0.132,3.45,0.16564466975184422,0.0,0.9861855015070959,-0.0,1.0,0.0,1.0,1.0,1.0, 1.0
80,0.0228,0.132,3.45,0.132,3.45,0.2751665389333201,0.0,0.9613965757435678,-0.0,1.0,0.0,1.0,1.0,1.0, 1.0
81,0.0228,0.132,3.45,0.132,3.45,0.38196920945473267,0.0,0.9241750499924387,-0.0,1.0,0.0,1.0,1.0,1.0, 1.0
82,0.0228,0.132,3.45,0.132,3.45,0.4839895161876488,0.0,0.8750737958712087,-0.0,1.0,0.0,1.0,1.0,1.0, 1.0
83,0.0228,0.132,3.45,0.132,3.45,0.579307327456934,0.0,0.8151092076247848,-0.0,1.0,0.0,1.0,1.0,1.0, 1.0
84,0.0228,0.132,3.45,0.132,3.45,0.6666385167360761,0.0,0.7453811696064803,-0.0,1.0,0.0,1.0,1.0,1.0, 1.0
85,0.0228,0.132,3.45,0.132,3.45,0.05524434551359697,0.0,0.9984728650738458,-0.0,1.0,0.0,1.0,1.0,1.0, 1.0
86,0.0228,0.132,3.45,0.132,3.45,0.16582778986330848,0.0,0.9861547262519459,-0.0,1.0,0.0,1.0,1.0,1.0, 1.0
87,0.0228,0.132,3.45,0.132,3.45,0.2751274486414371,0.0,0.9614077631286599,-0.0,1.0,0.0,1.0,1.0,1.0, 1.0
88,0.0228,0.132,3.45,0.132,3.45,0.38154009636541836,0.0,0.9243522893710315,-0.0,1.0,0.0,1.0,1.0,1.0, 1.0
89,0.0228,0.132,3.45,0.132,3.45,0.4832752308553464,0.0,0.8754684752986321,-0.0,1.0,0.0,1.0,1.0,1.0, 1.0
90,0.0228,0.132,3.45,0.132,3.45,0.578657363857997,0.0,0.8155707542898493,-0.0,1.0,0.0,1.0,1.0,1.0, 1.0
91,0.0228,0.132,3.45,0.132,3.45,0.6663918906432198,0.0,0.7456016685100396,-0.0,1.0,0.0,1.0,1.0,1.0, 1.0
92,0.0228,0.132,3.45,0.132,3.45,0.05573082075502961,0.0,0.998445830086926,-0.0,1.0,0.0,1.0,1.0,1.0, 1.0
93,0.0228,0.132,3.45,0.132,3.45,0.16682647649008617,0.0,0.9859862710717137,-0.0,1.0,0.0,1.0,1.0,1.0, 1.0
94,0.0228,0.132,3.45,0.132,3.45,0.27612307591851143,0.0,0.9611222851153228,-0.0,1.0,0.0,1.0,1.0,1.0, 1.0
95,0.0228,0.132,3.45,0.132,3.45,0.3821657229016355,0.0,0.9240938048916195,-0.0,1.0,0.0,1.0,1.0,1.0, 1.0
96,0.0228,0.132,3.45,0.132,3.45,0.48345766556252295,0.0,0.8753677430707827,-0.0,1.0,0.0,1.0,1.0,1.0, 1.0
97,0.0228,0.132,3.45,0.132,3.45,0.5785911147336076,0.0,0.8156177548038795,-0.0,1.0,0.0,1.0,1.0,1.0, 1.0
98,0.0228,0.132,3.45,0.132,3.45,0.6663367991357867,0.0,0.7456509036522884,-0.0,1.0,0.0,1.0,1.0,1.0, 1.0
99,0.0228,0.132,3.45,0.132,3.45,0.9974564991125938,0.0,0.07127785334904618,-0.0,1.0,0.0,1.0,1.0,1.0, 1.0
100,0.0228,0.132,3.45,0.132,3.45,0.9777112998907985,0.0,0.20995383794025996,-0.0,1.0,0.0,1.0,1.0,1.0, 1.0
101,0.0228,0.132,3.45,0.132,3.45,0.9403088803937838,0.0,0.3403222141626798,-0.0,1.0,0.0,1.0,1.0,1.0, 1.0
102,0.0228,0.132,3.45,0.132,3.45,0.8884560975967567,0.0,0.4589616134745286,-0.0,1.0,0.0,1.0,1.0,1.0, 1.0
103,0.0228,0.132,3.45,0.132,3.45,0.8268444117730549,0.0,0.5624307234848314,-0.0,1.0,0.0,1.0,1.0,1.0, 1.0
104,0.0228,0.132,3.45,0.132,3.45,0.7626095779965114,0.0,0.6468590507583416,-0.0,1.0,0.0,1.0,1.0,1.0, 1.0
105,0.0228,0.132,3.45,0.132,3.45,0.7072561129396805,0.0,0.7069574178898288,-0.0,1.0,0.0,1.0,1.0,1.0, 1.0
106,0.0228,0.132,3.45,0.132,3.45,0.9963583511194094,0.0,0.08526450700386087,-0.0,1.0,0.0,1.0,1.0,1.0, 1.0
107,0.0228,0.132,3.45,0.132,3.45,0.9687357542808596,0.0,0.2480948173136518,-0.0,1.0,0.0,1.0,1.0,1.0, 1.0
108,0.0228,0.132,3.45,0.132,3.45,0.9187201968766205,0.0,0.3949091032769233,-0.0,1.0,0.0,1.0,1.0,1.0, 1.0
109,0.0228,0.132,3.45,0.132,3.45,0.8532451069405909,0.0,0.5215101029528957,-0.0,1.0,0.0,1.0,1.0,1.0, 1.0
110,0.0228,0.132,3.45,0.132,3.45,0.7799867922931168,0.0,0.6257959762161261,-0.0,1.0,0.0,1.0,1.0,1.0, 1.0
111,0.0228,0.132,3.45,0.132,3.45,0.7077909430560203,0.0,0.7064219567141647,-0.0,1.0,0.0,1.0,1.0,1.0, 1.0
112,0.0228,0.132,3.45,0.132,3.45,0.6475256662537393,0.0,0.7620436414947973,-0.0,1.0,0.0,1.0,1.0,1.0, 1.0
113,0.0228,0.132,3.45,0.132,3.45,0.9943161132056944,0.0,0.10646815025875518,-0.0,1.0,0.0,1.0,1.0,1.0, 1.0
114,0.0228,0.132,3.45,0.132,3.45,0.9526142906150264,0.0,0.30418088913676006,-0.0,1.0,0.0,1.0,1.0,1.0, 1.0
115,0.0228,0.132,3.45,0.132,3.45,0.8820292662295897,0.0,0.4711946238174747,-0.0,1.0,0.0,1.0,1.0,1.0, 1.0
116,0.0228,0.132,3.45,0.132,3.45,0.7969832055005155,0.0,0.6040014653542847,-0.0,1.0,0.0,1.0,1.0,1.0, 1.0
117,0.0228,0.132,3.45,0.132,3.45,0.7092523953304478,0.0,0.7049546366384309,-0.0,1.0,0.0,1.0,1.0,1.0, 1.0
118,0.0228,0.132,3.45,0.132,3.45,0.6284544842139262,0.0,0.7778463609681592,-0.0,1.0,0.0,1.0,1.0,1.0, 1.0
119,0.0228,0.132,3.45,0.132,3.45,0.5636953384987287,0.0,0.8259827875656996,-0.0,1.0,0.0,1.0,1.0,1.0, 1.0
120,0.0228,0.132,3.45,0.132,3.45,0.99026369526219,0.0,0.13920421633583,-0.0,1.0,0.0,1.0,1.0,1.0, 1.0
121,0.0228,0.132,3.45,0.132,3.45,0.9227971733921184,0.0,0.3852860973088914,-0.0,1.0,0.0,1.0,1.0,1.0, 1.0
122,0.0228,0.132,3.45,0.132,3.45,0.8204827283990549,0.0,0.571671315004385,-0.0,1.0,0.0,1.0,1.0,1.0, 1.0
123,0.0228,0.132,3.45,0.132,3.45,0.7116032215184075,0.0,0.7025815647486235,-0.0,1.0,0.0,1.0,1.0,1.0, 1.0
124,0.0228,0.132,3.45,0.132,3.45,0.6109774573849978,0.0,0.7916479941030377,-0.0,1.0,0.0,1.0,1.0,1.0, 1.0
125,0.0228,0.132,3.45,0.132,3.45,0.5256539608981121,0.0,0.8506984855941182,-0.0,1.0,0.0,1.0,1.0,1.0, 1.0
126,0.0228,0.132,3.45,0.132,3.45,0.46088677215933876,0.0,0.8874589473595641,-0.0,1.0,0.0,1.0,1.0,1.0, 1.0
127,0.0228,0.132,3.45,0.132,3.45,0.9806842780319446,0.0,0.1955974100568914,-0.0,1.0,0.0,1.0,1.0,1.0, 1.0
128,0.0228,0.132,3.45,0.132,3.45,0.8611825173773527,0.0,0.5082958506259965,-0.0,1.0,0.0,1.0,1.0,1.0, 1.0
129,0.0228,0.132,3.45,0.132,3.45,0.7133350350308987,0.0,0.7008231786959294,-0.0,1.0,0.0,1.0,1.0,1.0, 1.0
130,0.0228,0.132,3.45,0.132,3.45,0.5837638087025061,0.0,0.8119235282027143,-0.0,1.0,0.0,1.0,1.0,1.0, 1.0
131,0.0228,0.132,3.45,0.132,3.45,0.47994106293504285,0.0,0.8773007329922741,-0.0,1.0,0.0,1.0,1.0,1.0, 1.0
132,0.0228,0.132,3.45,0.132,3.45,0.39994567889569055,0.0,0.9165388447483636,-0.0,1.0,0.0,1.0,1.0,1.0, 1.0
133,0.0228,0.132,3.45,0.132,3.45,0.34261020677363285,0.0,0.9394776454043643,-0.0,1.0,0.0,1.0,1.0,1.0, 1.0
134,0.0228,0.132,3.45,0.132,3.45,0.9484921125903437,0.0,0.3168007455071827,-0.0,1.0,0.0,1.0,1.0,1.0, 1.0
135,0.0228,0.132,3.45,0.132,3.45,0.7125408772993564,0.0,0.7016305995162008,-0.0,1.0,0.0,1.0,1.0,1.0, 1.0
136,0.0228,0.132,3.45,0.132,3.45,0.5215907570631488,0.0,0.8531958052793573,-0.0,1.0,0.0,1.0,1.0,1.0, 1.0
137,0.0228,0.132,3.45,0.132,3.45,0.3966171799117055,0.0,0.9179841025850534,-0.0,1.0,0.0,1.0,1.0,1.0, 1.0
138,0.0228,0.132,3.45,0.132,3.45,0.3119123678685256,0.0,0.9501108749880982,-0.0,1.0,0.0,1.0,1.0,1.0, 1.0
139,0.0228,0.132,3.45,0.132,3.45,0.2524147962829263,0.0,0.9676191247683401,-0.0,1.0,0.0,1.0,1.0,1.0, 1.0
140,0.0228,0.132,3.45,0.132,3.45,0.21189786179718678,0.0,0.9772918173021711,-0.0,1.0,0.0,1.0,1.0,1.0, 1.0
141,0.0228,0.132,3.45,0.132,3.45,0.7090580799711086,0.0,0.7051500827679773,-0.0,1.0,0.0,1.0,1.0,1.0, 1.0
142,0.0228,0.132,3.45,0.132,3.45,0.3235673390561978,0.0,0.9462051453549022,-0.0,1.0,0.0,1.0,1.0,1.0, 1.0
143,0.0228,0.132,3.45,0.132,3.45,0.20163008987098147,0.0,0.9794617434380068,-0.0,1.0,0.0,1.0,1.0,1.0, 1.0
144,0.0228,0.132,3.45,0.132,3.45,0.14379844865110913,0.0,0.9896069958147701,-0.0,1.0,0.0,1.0,1.0,1.0, 1.0
145,0.0228,0.132,3.45,0.132,3.45,0.10960010601257424,0.0,0.9939757626632716,-0.0,1.0,0.0,1.0,1.0,1.0, 1.0
146,0.0228,0.132,3.45,0.132,3.45,0.08696847069631308,0.0,0.9962110645363985,-0.0,1.0,0.0,1.0,1.0,1.0, 1.0
147,0.0228,0.132,3.45,0.132,3.45,0.07204601827035476,0.0,0.9974013090283106,-0.0,1.0,0.0,1.0,1.0,1.0, 1.0
148,0.0228,0.132,3.45,0.132,3.45,0.9974813255378315,0.0,0.07092957918450256,-0.0,1.0,0.0,1.0,1.0,1.0, 1.0
149,0.0228,0.132,3.45,0.132,3.45,0.9778802064793627,0.0,0.20916572801460326,-0.0,1.0,0.0,1.0,1.0,1.0, 1.0
150,0.0228,0.132,3.45,0.132,3.45,0.9405669831596053,0.0,0.3396082304509696,-0.0,1.0,0.0,1.0,1.0,1.0, 1.0
151,0.0228,0.132,3.45,0.132,3.45,0.8886256798979897,0.0,0.458633187880942,-0.0,1.0,0.0,1.0,1.0,1.0, 1.0
152,0.0228,0.132,3.45,0.132,3.45,0.8268317366374718,0.0,0.5624493570883182,-0.0,1.0,0.0,1.0,1.0,1.0, 1.0
153,0.0228,0.132,3.45,0.132,3.45,0.7625030425777113,0.0,0.6469846289207597,-0.0,1.0,0.0,1.0,1.0,1.0, 1.0
154,0.0228,0.132,3.45,0.132,3.45,0.7072266137117235,0.0,0.7069869283500572,-0.0,1.0,0.0,1.0,1.0,1.0, 1.0
155,0.0228,0.132,3.45,0.132,3.45,0.9964281125259213,0.0,0.08444534663337004,-0.0,1.0,0.0,1.0,1.0,1.0, 1.0
156,0.0228,0.132,3.45,0.132,3.45,0.969205193274781,0.0,0.24625452956076657,-0.0,1.0,0.0,1.0,1.0,1.0, 1.0
157,0.0228,0.132,3.45,0.132,3.45,0.91946439495623,0.0,0.39317327784041217,-0.0,1.0,0.0,1.0,1.0,1.0, 1.0
158,0.0228,0.132,3.45,0.132,3.45,0.8538328739704314,0.0,0.5205472344825139,-0.0,1.0,0.0,1.0,1.0,1.0, 1.0
159,0.0228,0.132,3.45,0.132,3.45,0.7801716777674342,0.0,0.625565466765507,-0.0,1.0,0.0,1.0,1.0,1.0, 1.0
160,0.0228,0.132,3.45,0.132,3.45,0.7077301102836201,0.0,0.7064829021271039,-0.0,1.0,0.0,1.0,1.0,1.0, 1.0
161,0.0228,0.132,3.45,0.132,3.45,0.6475599817729605,0.0,0.7620144814937596,-0.0,1.0,0.0,1.0,1.0,1.0, 1.0
162,0.0228,0.132,3.45,0.132,3.45,0.9944485368318421,0.0,0.10522408276154485,-0.0,1.0,0.0,1.0,1.0,1.0, 1.0
163,0.0228,0.132,3.45,0.132,3.45,0.9534464576788331,0.0,0.3015623523248304,-0.0,1.0,0.0,1.0,1.0,1.0, 1.0
164,0.0228,0.132,3.45,0.132,3.45,0.8831858619546699,0.0,0.46902316919677534,-0.0,1.0,0.0,1.0,1.0,1.0, 1.0
165,0.0228,0.132,3.45,0.132,3.45,0.7976798531381651,0.0,0.6030811321020374,-0.0,1.0,0.0,1.0,1.0,1.0, 1.0
166,0.0228,0.132,3.45,0.132,3.45,0.7092407704716185,0.0,0.7049663321753918,-0.0,1.0,0.0,1.0,1.0,1.0, 1.0
167,0.0228,0.132,3.45,0.132,3.45,0.6281132151613865,0.0,0.7781219627665229,-0.0,1.0,0.0,1.0,1.0,1.0, 1.0
168,0.0228,0.132,3.45,0.132,3.45,0.5636053875984068,0.0,0.8260441677477358,-0.0,1.0,0.0,1.0,1.0,1.0, 1.0
169,0.0228,0.132,3.45,0.132,3.45,0.990487649246293,0.0,0.13760165947601322,-0.0,1.0,0.0,1.0,1.0,1.0, 1.0
170,0.0228,0.132,3.45,0.132,3.45,0.9238774205687761,0.0,0.38268853100554856,-0.0,1.0,0.0,1.0,1.0,1.0, 1.0
171,0.0228,0.132,3.45,0.132,3.45,0.8215280482761096,0.0,0.5701681031903187,-0.0,1.0,0.0,1.0,1.0,1.0, 1.0
172,0.0228,0.132,3.45,0.132,3.45,0.7116403183618686,0.0,0.7025439895706305,-0.0,1.0,0.0,1.0,1.0,1.0, 1.0
173,0.0228,0.132,3.45,0.132,3.45,0.6100750334032213,0.0,0.7923436461650073,-0.0,1.0,0.0,1.0,1.0,1.0, 1.0
174,0.0228,0.132,3.45,0.132,3.45,0.5246591166388216,0.0,0.8513124052471991,-0.0,1.0,0.0,1.0,1.0,1.0, 1.0
175,0.0228,0.132,3.45,0.132,3.45,0.46047370167473617,0.0,0.8876733464884288,-0.0,1.0,0.0,1.0,1.0,1.0, 1.0
176,0.0228,0.132,3.45,0.132,3.45,0.9810598628763098,0.0,0.19370478944289538,-0.0,1.0,0.0,1.0,1.0,1.0, 1.0
177,0.0228,0.132,3.45,0.132,3.45,0.8621660239143083,0.0,0.5066258453807823,-0.0,1.0,0.0,1.0,1.0,1.0, 1.0
178,0.0228,0.132,3.45,0.132,3.45,0.7131958858175363,0.0,0.7009647840319367,-0.0,1.0,0.0,1.0,1.0,1.0, 1.0
179,0.0228,0.132,3.45,0.132,3.45,0.5821825908239316,0.0,0.81305807353567,-0.0,1.0,0.0,1.0,1.0,1.0, 1.0
180,0.0228,0.132,3.45,0.132,3.45,0.47779010445689685,0.0,0.8784740269826238,-0.0,1.0,0.0,1.0,1.0,1.0, 1.0
181,0.0228,0.132,3.45,0.132,3.45,0.3981674667197463,0.0,0.9173127429868069,-0.0,1.0,0.0,1.0,1.0,1.0, 1.0
182,0.0228,0.132,3.45,0.132,3.45,0.3418548325680846,0.0,0.9397527725151158,-0.0,1.0,0.0,1.0,1.0,1.0, 1.0
183,0.0228,0.132,3.45,0.132,3.45,0.9491777360143383,0.0,0.31474056849204374,-0.0,1.0,0.0,1.0,1.0,1.0, 1.0
184,0.0228,0.132,3.45,0.132,3.45,0.7122372737375776,0.0,0.7019387907067559,-0.0,1.0,0.0,1.0,1.0,1.0, 1.0
185,0.0228,0.132,3.45,0.132,3.45,0.5193856574309669,0.0,0.8545399574361648,-0.0,1.0,0.0,1.0,1.0,1.0, 1.0
186,0.0228,0.132,3.45,0.132,3.45,0.39365750800974164,0.0,0.919257181852587,-0.0,1.0,0.0,1.0,1.0,1.0, 1.0
187,0.0228,0.132,3.45,0.132,3.45,0.3091587375412967,0.0,0.9510104494703892,-0.0,1.0,0.0,1.0,1.0,1.0, 1.0
188,0.0228,0.132,3.45,0.132,3.45,0.2505058255234667,0.0,0.9681150920106589,-0.0,1.0,0.0,1.0,1.0,1.0, 1.0
189,0.0228,0.132,3.45,0.132,3.45,0.2110675110185568,0.0,0.977471485922956,-0.0,1.0,0.0,1.0,1.0,1.0, 1.0
190,0.0228,0.132,3.45,0.132,3.45,0.709077740285755,0.0,0.7051303129431095,-0.0,1.0,0.0,1.0,1.0,1.0, 1.0
191,0.0228,0.132,3.45,0.132,3.45,0.3207617953338976,0.0,0.9471598970892797,-0.0,1.0,0.0,1.0,1.0,1.0, 1.0
192,0.0228,0.132,3.45,0.132,3.45,0.19927931877340818,0.0,0.9799427295047433,-0.0,1.0,0.0,1.0,1.0,1.0, 1.0
193,0.0228,0.132,3.45,0.132,3.45,0.14198058496584393,0.0,0.9898694426502703,-0.0,1.0,0.0,1.0,1.0,1.0, 1.0
194,0.0228,0.132,3.45,0.132,3.45,0.10817070649288654,0.0,0.9941323343784919,-0.0,1.0,0.0,1.0,1.0,1.0, 1.0
195,0.0228,0.132,3.45,0.132,3.45,0.08613515289425108,0.0,0.9962834613883159,-0.0,1.0,0.0,1.0,1.0,1.0, 1.0
196,0.0228,0.132,3.45,0.132,3.45,0.07166624596263778,0.0,0.9974286687225421,-0.0,1.0,0.0,1.0,1.0,1.0, 1.0
197,0.0228,0.132,3.45,0.132,3.45,0.7456516716971225,0.0,0.6663359396695383,-0.0,1.0,0.0,1.0,1.0,1.0, 1.0
198,0.0228,0.132,3.45,0.132,3.45,0.7456125881876837,0.0,0.6663796728112762,-0.0,1.0,0.0,1.0,1.0,1.0, 1.0
199,0.0228,0.132,3.45,0.132,3.45,0.7454278184382701,0.0,0.6665863541195256,-0.0,1.0,0.0,1.0,1.0,1.0, 1.0
200,0.0228,0.132,3.45,0.132,3.45,0.744999434363816,0.0,0.6670650963718565,-0.0,1.0,0.0,1.0,1.0,1.0, 1.0
201,0.0228,0.132,3.45,0.132,3.45,0.7440045302639723,0.0,0.6681745722090043,-0.0,1.0,0.0,1.0,1.0,1.0, 1.0
202,0.0228,0.132,3.45,0.132,3.45,0.7414840913263281,0.0,0.6709704481644252,-0.0,1.0,0.0,1.0,1.0,1.0, 1.0
203,0.0228,0.132,3.45,0.132,3.45,0.7349186622861253,0.0,0.6781552623283049,-0.0,1.0,0.0,1.0,1.0,1.0, 1.0
204,0.0228,0.132,3.45,0.132,3.45,0.8156168048093488,0.0,0.5785924539022165,-0.0,1.0,0.0,1.0,1.0,1.0, 1.0
205,0.0228,0.132,3.45,0.132,3.45,0.8155973263729136,0.0,0.578619910833835,-0.0,1.0,0.0,1.0,1.0,1.0, 1.0
206,0.0228,0.132,3.45,0.132,3.45,0.8152205634522888,0.0,0.5791506133334684,-0.0,1.0,0.0,1.0,1.0,1.0, 1.0
207,0.0228,0.132,3.45,0.132,3.45,0.8142684619119258,0.0,0.580488477005002,-0.0,1.0,0.0,1.0,1.0,1.0, 1.0
208,0.0228,0.132,3.45,0.132,3.45,0.8121055544970157,0.0,0.583510555478729,-0.0,1.0,0.0,1.0,1.0,1.0, 1.0
209,0.0228,0.132,3.45,0.132,3.45,0.8067005148474682,0.0,0.5909604718970888,-0.0,1.0,0.0,1.0,1.0,1.0, 1.0
210,0.0228,0.132,3.45,0.132,3.45,0.7932507999502885,0.0,0.608895038884558,-0.0,1.0,0.0,1.0,1.0,1.0, 1.0
211,0.0228,0.132,3.45,0.132,3.45,0.8753662300453703,0.0,0.48346040509658683,-0.0,1.0,0.0,1.0,1.0,1.0, 1.0
212,0.0228,0.132,3.45,0.132,3.45,0.8754934797977147,0.0,0.4832299316388508,-0.0,1.0,0.0,1.0,1.0,1.0, 1.0
213,0.0228,0.132,3.45,0.132,3.45,0.8751951140808736,0.0,0.48377010272335613,-0.0,1.0,0.0,1.0,1.0,1.0, 1.0
214,0.0228,0.132,3.45,0.132,3.45,0.8742272107092613,0.0,0.4855170275649504,-0.0,1.0,0.0,1.0,1.0,1.0, 1.0
215,0.0228,0.132,3.45,0.132,3.45,0.8719943807127664,0.0,0.48951588330243057,-0.0,1.0,0.0,1.0,1.0,1.0, 1.0
216,0.0228,0.132,3.45,0.132,3.45,0.8665571153798552,0.0,0.49907791554480174,-0.0,1.0,0.0,1.0,1.0,1.0, 1.0
217,0.0228,0.132,3.45,0.132,3.45,0.8536710738017961,0.0,0.5208125360953677,-0.0,1.0,0.0,1.0,1.0,1.0, 1.0
218,0.0228,0.132,3.45,0.132,3.45,0.9240911904360076,0.0,0.38217204471096833,-0.0,1.0,0.0,1.0,1.0,1.0, 1.0
219,0.0228,0.132,3.45,0.132,3.45,0.9243659381158763,0.0,0.3815070280494921,-0.0,1.0,0.0,1.0,1.0,1.0, 1.0
220,0.0228,0.132,3.45,0.132,3.45,0.9242668029231281,0.0,0.38174713753250245,-0.0,1.0,0.0,1.0,1.0,1.0, 1.0
221,0.0228,0.132,3.45,0.132,3.45,0.9235908051707938,0.0,0.383379739428109,-0.0,1.0,0.0,1.0,1.0,1.0, 1.0
222,0.0228,0.132,3.45,0.132,3.45,0.9218891734245018,0.0,0.38745367713145856,-0.0,1.0,0.0,1.0,1.0,1.0, 1.0
223,0.0228,0.132,3.45,0.132,3.45,0.9177863726599864,0.0,0.3970745196554729,-0.0,1.0,0.0,1.0,1.0,1.0, 1.0
224,0.0228,0.132,3.45,0.132,3.45,0.9082074781271128,0.0,0.41852022253887555,-0.0,1.0,0.0,1.0,1.0,1.0, 1.0
225,0.0228,0.132,3.45,0.132,3.45,0.9611178832033399,0.0,0.2761383975232908,-0.0,1.0,0.0,1.0,1.0,1.0, 1.0
226,0.0228,0.132,3.45,0.132,3.45,0.9614121467244457,0.0,0.2751121301046049,-0.0,1.0,0.0,1.0,1.0,1.0, 1.0
227,0.0228,0.132,3.45,0.132,3.45,0.9614500695679596,0.0,0.27497956965521214,-0.0,1.0,0.0,1.0,1.0,1.0, 1.0
228,0.0228,0.132,3.45,0.132,3.45,0.961106626768479,0.0,0.2761775732779827,-0.0,1.0,0.0,1.0,1.0,1.0, 1.0
229,0.0228,0.132,3.45,0.132,3.45,0.9601140856804684,0.0,0.2796085522260687,-0.0,1.0,0.0,1.0,1.0,1.0, 1.0
230,0.0228,0.132,3.45,0.132,3.45,0.9576844672306718,0.0,0.2878201890505674,-0.0,1.0,0.0,1.0,1.0,1.0, 1.0
231,0.0228,0.132,3.45,0.132,3.45,0.9520409638852778,0.0,0.3059705918620141,-0.0,1.0,0.0,1.0,1.0,1.0, 1.0
232,0.0228,0.132,3.45,0.132,3.45,0.9859844328701554,0.0,0.16683734035796083,-0.0,1.0,0.0,1.0,1.0,1.0, 1.0
233,0.0228,0.132,3.45,0.132,3.45,0.9861569378445637,0.0,0.1658146372942796,-0.0,1.0,0.0,1.0,1.0,1.0, 1.0
234,0.0228,0.132,3.45,0.132,3.45,0.986208833286689,0.0,0.16550570125318245,-0.0,1.0,0.0,1.0,1.0,1.0, 1.0
235,0.0228,0.132,3.45,0.132,3.45,0.9860916897179319,0.0,0.16620222462179532,-0.0,1.0,0.0,1.0,1.0,1.0, 1.0
236,0.0228,0.132,3.45,0.132,3.45,0.9856981601863137,0.0,0.1685204349784211,-0.0,1.0,0.0,1.0,1.0,1.0, 1.0
237,0.0228,0.132,3.45,0.132,3.45,0.9847196072695952,0.0,0.17414733721425135,-0.0,1.0,0.0,1.0,1.0,1.0, 1.0
238,0.0228,0.132,3.45,0.132,3.45,0.9824551570512375,0.0,0.1864989661725448,-0.0,1.0,0.0,1.0,1.0,1.0, 1.0
239,0.0228,0.132,3.45,0.132,3.45,0.9984461116040855,0.0,0.05572577700384339,-0.0,1.0,0.0,1.0,1.0,1.0, 1.0
240,0.0228,0.132,3.45,0.132,3.45,0.998474329086613,0.0,0.05521787894367164,-0.0,1.0,0.0,1.0,1.0,1.0, 1.0
241,0.0228,0.132,3.45,0.132,3.45,0.9984836558635206,0.0,0.055048968867893976,-0.0,1.0,0.0,1.0,1.0,1.0, 1.0
242,0.0228,0.132,3.45,0.132,3.45,0.9984707899919116,0.0,0.05528183727887257,-0.0,1.0,0.0,1.0,1.0,1.0, 1.0
243,0.0228,0.132,3.45,0.132,3.45,0.9984226482310173,0.0,0.05614459456939885,-0.0,1.0,0.0,1.0,1.0,1.0, 1.0
244,0.0228,0.132,3.45,0.132,3.45,0.9983025472611843,0.0,0.05824108628649648,-0.0,1.0,0.0,1.0,1.0,1.0, 1.0
245,0.0228,0.132,3.45,0.132,3.45,0.9980286478053765,0.0,0.06276000445962218,-0.0,1.0,0.0,1.0,1.0,1.0, 1.0
246,0.0228,0.132,3.45,0.132,3.45,0.7456509036522884,0.0,0.6663367991357867,-0.0,1.0,0.0,1.0,1.0,1.0, 1.0
247,0.0228,0.132,3.45,0.132,3.45,0.7456016685100396,0.0,0.6663918906432198,-0.0,1.0,0.0,1.0,1.0,1.0, 1.0
248,0.0228,0.132,3.45,0.132,3.45,0.7453835701988781,0.0,0.6666358325784583,-0.0,1.0,0.0,1.0,1.0,1.0, 1.0
249,0.0228,0.132,3.45,0.132,3.45,0.7448973692334234,0.0,0.6671790683985259,-0.0,1.0,0.0,1.0,1.0,1.0, 1.0
250,0.0228,0.132,3.45,0.132,3.45,0.7438440452507864,0.0,0.6683532272271496,-0.0,1.0,0.0,1.0,1.0,1.0, 1.0
251,0.0228,0.132,3.45,0.132,3.45,0.7413121766968453,0.0,0.6711603807444129,-0.0,1.0,0.0,1.0,1.0,1.0, 1.0
252,0.0228,0.132,3.45,0.132,3.45,0.7347884013659757,0.0,0.6782963992371137,-0.0,1.0,0.0,1.0,1.0,1.0, 1.0
253,0.0228,0.132,3.45,0.132,3.45,0.8156177548038794,0.0,0.5785911147336078,-0.0,1.0,0.0,1.0,1.0,1.0, 1.0
254,0.0228,0.132,3.45,0.132,3.45,0.8155707542898493,0.0,0.5786573638579969,-0.0,1.0,0.0,1.0,1.0,1.0, 1.0
255,0.0228,0.132,3.45,0.132,3.45,0.8151114870031357,0.0,0.5793041202645955,-0.0,1.0,0.0,1.0,1.0,1.0, 1.0
256,0.0228,0.132,3.45,0.132,3.45,0.8140242360506044,0.0,0.5808309075128749,-0.0,1.0,0.0,1.0,1.0,1.0, 1.0
257,0.0228,0.132,3.45,0.132,3.45,0.81172133751991,0.0,0.5840449214015033,-0.0,1.0,0.0,1.0,1.0,1.0, 1.0
258,0.0228,0.132,3.45,0.132,3.45,0.806277922634759,0.0,0.5915369062634872,-0.0,1.0,0.0,1.0,1.0,1.0, 1.0
259,0.0228,0.132,3.45,0.132,3.45,0.7929572255104804,0.0,0.6092773083832362,-0.0,1.0,0.0,1.0,1.0,1.0, 1.0
260,0.0228,0.132,3.45,0.132,3.45,0.8753677430707827,0.0,0.48345766556252284,-0.0,1.0,0.0,1.0,1.0,1.0, 1.0
261,0.0228,0.132,3.45,0.132,3.45,0.8754684752986321,0.0,0.4832752308553463,-0.0,1.0,0.0,1.0,1.0,1.0, 1.0
262,0.0228,0.132,3.45,0.132,3.45,0.8750737958712086,0.0,0.48398951618764896,-0.0,1.0,0.0,1.0,1.0,1.0, 1.0
263,0.0228,0.132,3.45,0.132,3.45,0.8739435478165424,0.0,0.48602744287728733,-0.0,1.0,0.0,1.0,1.0,1.0, 1.0
264,0.0228,0.132,3.45,0.132,3.45,0.8715419120544533,0.0,0.4903210127380506,-0.0,1.0,0.0,1.0,1.0,1.0, 1.0
265,0.0228,0.132,3.45,0.132,3.45,0.8660621507841151,0.0,0.4999363469274792,-0.0,1.0,0.0,1.0,1.0,1.0, 1.0
266,0.0228,0.132,3.45,0.132,3.45,0.8533550697432317,0.0,0.5213301496590468,-0.0,1.0,0.0,1.0,1.0,1.0, 1.0
267,0.0228,0.132,3.45,0.132,3.45,0.9240938048916195,0.0,0.3821657229016355,-0.0,1.0,0.0,1.0,1.0,1.0, 1.0
268,0.0228,0.132,3.45,0.132,3.45,0.9243522893710315,0.0,0.3815400963654184,-0.0,1.0,0.0,1.0,1.0,1.0, 1.0
269,0.0228,0.132,3.45,0.132,3.45,0.924175389943868,0.0,0.38196838694072516,-0.0,1.0,0.0,1.0,1.0,1.0, 1.0
270,0.0228,0.132,3.45,0.132,3.45,0.9233568305054497,0.0,0.3839429170579008,-0.0,1.0,0.0,1.0,1.0,1.0, 1.0
271,0.0228,0.132,3.45,0.132,3.45,0.9215062522058516,0.0,0.38836352447870975,-0.0,1.0,0.0,1.0,1.0,1.0, 1.0
272,0.0228,0.132,3.45,0.132,3.45,0.9173763536625769,0.0,0.3980208860609639,-0.0,1.0,0.0,1.0,1.0,1.0, 1.0
273,0.0228,0.132,3.45,0.132,3.45,0.907990954049942,0.0,0.4189897699985957,-0.0,1.0,0.0,1.0,1.0,1.0, 1.0
274,0.0228,0.132,3.45,0.132,3.45,0.9611222851153228,0.0,0.27612307591851143,-0.0,1.0,0.0,1.0,1.0,1.0, 1.0
275,0.0228,0.132,3.45,0.132,3.45,0.9614078923022538,0.0,0.2751269972556999,-0.0,1.0,0.0,1.0,1.0,1.0, 1.0
276,0.0228,0.132,3.45,0.132,3.45,0.9613972118509517,0.0,0.2751643164460395,-0.0,1.0,0.0,1.0,1.0,1.0, 1.0
277,0.0228,0.132,3.45,0.132,3.45,0.9609615095323896,0.0,0.27668208687450513,-0.0,1.0,0.0,1.0,1.0,1.0, 1.0
278,0.0228,0.132,3.45,0.132,3.45,0.9598717499115494,0.0,0.28043934053862696,-0.0,1.0,0.0,1.0,1.0,1.0, 1.0
279,0.0228,0.132,3.45,0.132,3.45,0.9574314885219465,0.0,0.2886606048400956,-0.0,1.0,0.0,1.0,1.0,1.0, 1.0
280,0.0228,0.132,3.45,0.132,3.45,0.9519487592129293,0.0,0.30625734249641157,-0.0,1.0,0.0,1.0,1.0,1.0, 1.0
281,0.0228,0.132,3.45,0.132,3.45,0.9859862710717137,0.0,0.16682647649008617,-0.0,1.0,0.0,1.0,1.0,1.0, 1.0
282,0.0228,0.132,3.45,0.132,3.45,0.9861548059732841,0.0,0.1658273157709377,-0.0,1.0,0.0,1.0,1.0,1.0, 1.0
283,0.0228,0.132,3.45,0.132,3.45,0.9861858152524526,0.0,0.16564280182022814,-0.0,1.0,0.0,1.0,1.0,1.0, 1.0
284,0.0228,0.132,3.45,0.132,3.45,0.9860287886592186,0.0,0.16657499192626163,-0.0,1.0,0.0,1.0,1.0,1.0, 1.0
285,0.0228,0.132,3.45,0.132,3.45,0.9855938713920944,0.0,0.16912930164327997,-0.0,1.0,0.0,1.0,1.0,1.0, 1.0
286,0.0228,0.132,3.45,0.132,3.45,0.9846152298458314,0.0,0.17473651351575265,-0.0,1.0,0.0,1.0,1.0,1.0, 1.0
287,0.0228,0.132,3.45,0.132,3.45,0.9824343006477616,0.0,0.1866088018040513,-0.0,1.0,0.0,1.0,1.0,1.0, 1.0
288,0.0228,0.132,3.45,0.132,3.45,0.9984458300869261,0.0,0.05573082075502963,-0.0,1.0,0.0,1.0,1.0,1.0, 1.0
289,0.0228,0.132,3.45,0.132,3.45,0.9984728650738457,0.0,0.05524434551359697,-0.0,1.0,0.0,1.0,1.0,1.0, 1.0
290,0.0228,0.132,3.45,0.132,3.45,0.9984793044886858,0.0,0.05512783786609316,-0.0,1.0,0.0,1.0,1.0,1.0, 1.0
291,0.0228,0.132,3.45,0.132,3.45,0.9984611412561378,0.0,0.05545583288970327,-0.0,1.0,0.0,1.0,1.0,1.0, 1.0
292,0.0228,0.132,3.45,0.132,3.45,0.9984076348796228,0.0,0.056410944098443994,-0.0,1.0,0.0,1.0,1.0,1.0, 1.0
293,0.0228,0.132,3.45,0.132,3.45,0.9982882042419002,0.0,0.05848641954746251,-0.0,1.0,0.0,1.0,1.0,1.0, 1.0
294,0.0228,0.132,3.45,0.132,3.45,0.998026446747166,0.0,0.06279499656203745,-0.0,1.0,0.0,1.0,1.0,1.0, 1.0
295,0.0228,0.132,3.45,0.132,3.45,0.9980115624266712,0.0,-0.0630311134494284,0.0,1.0,0.0,1.0,1.0,1.0, 1.0
296,0.0228,0.132,3.45,0.132,3.45,0.9823248254427827,0.0,-0.18718423362774606,0.0,1.0,0.0,1.0,1.0,1.0, 1.0
297,0.0228,0.132,3.45,0.132,3.45,0.9517792787331161,0.0,-0.30678364456774604,0.0,1.0,0.0,1.0,1.0,1.0, 1.0
298,0.0228,0.132,3.45,0.132,3.45,0.9078864689381833,0.0,-0.4192161250702997,0.0,1.0,0.0,1.0,1.0,1.0, 1.0
299,0.0228,0.132,3.45,0.132,3.45,0.8533894337350568,0.0,-0.5212738957490191,0.0,1.0,0.0,1.0,1.0,1.0, 1.0
300,0.0228,0.132,3.45,0.132,3.45,0.7930597551659249,0.0,-0.6091438456852071,0.0,1.0,0.0,1.0,1.0,1.0, 1.0
301,0.0228,0.132,3.45,0.132,3.45,0.7347998296175202,0.0,-0.6782840189729248,0.0,1.0,0.0,1.0,1.0,1.0, 1.0
302,0.0228,0.132,3.45,0.132,3.45,0.9982983044689108,0.0,-0.05831376590907031,0.0,1.0,0.0,1.0,1.0,1.0, 1.0
303,0.0228,0.132,3.45,0.132,3.45,0.9846871567330678,0.0,-0.17433072983540968,0.0,1.0,0.0,1.0,1.0,1.0, 1.0
304,0.0228,0.132,3.45,0.132,3.45,0.9576180705605951,0.0,-0.2880410230085347,0.0,1.0,0.0,1.0,1.0,1.0, 1.0
305,0.0228,0.132,3.45,0.132,3.45,0.9177030447966649,0.0,-0.39726706580199966,0.0,1.0,0.0,1.0,1.0,1.0, 1.0
306,0.0228,0.132,3.45,0.132,3.45,0.8664815275328035,0.0,-0.49920913698010316,0.0,1.0,0.0,1.0,1.0,1.0, 1.0
307,0.0228,0.132,3.45,0.132,3.45,0.8066430620265012,0.0,-0.5910388908392662,0.0,1.0,0.0,1.0,1.0,1.0, 1.0
308,0.0228,0.132,3.45,0.132,3.45,0.7414424892240754,0.0,-0.6710164194512731,0.0,1.0,0.0,1.0,1.0,1.0, 1.0
309,0.0228,0.132,3.45,0.132,3.45,0.9984217951517058,0.0,-0.05615976287383219,0.0,1.0,0.0,1.0,1.0,1.0, 1.0
310,0.0228,0.132,3.45,0.132,3.45,0.9856914060213191,0.0,-0.16855993621176665,0.0,1.0,0.0,1.0,1.0,1.0, 1.0
311,0.0228,0.132,3.45,0.132,3.45,0.9600994019980588,0.0,-0.27965896782147,0.0,1.0,0.0,1.0,1.0,1.0, 1.0
312,0.0228,0.132,3.45,0.132,3.45,0.9218704633793602,0.0,-0.3874981919296186,0.0,1.0,0.0,1.0,1.0,1.0, 1.0
313,0.0228,0.132,3.45,0.132,3.45,0.8719781759585545,0.0,-0.48954474836524625,0.0,1.0,0.0,1.0,1.0,1.0, 1.0
314,0.0228,0.132,3.45,0.132,3.45,0.8120933361023404,0.0,-0.5835275601530499,0.0,1.0,0.0,1.0,1.0,1.0, 1.0
315,0.0228,0.132,3.45,0.132,3.45,0.7439935727582346,0.0,-0.6681867730615725,0.0,1.0,0.0,1.0,1.0,1.0, 1.0
316,0.0228,0.132,3.45,0.132,3.45,0.9984706301846704,0.0,-0.055284723555672766,0.0,1.0,0.0,1.0,1.0,1.0, 1.0
317,0.0228,0.132,3.45,0.132,3.45,0.9860901965415919,0.0,-0.16621108351901356,0.0,1.0,0.0,1.0,1.0,1.0, 1.0
318,0.0228,0.132,3.45,0.132,3.45,0.9611029630491106,0.0,-0.276190322817835,0.0,1.0,0.0,1.0,1.0,1.0, 1.0
319,0.0228,0.132,3.45,0.132,3.45,0.9235860396052896,0.0,-0.3833912198345399,0.0,1.0,0.0,1.0,1.0,1.0, 1.0
320,0.0228,0.132,3.45,0.132,3.45,0.874224742547931,0.0,-0.48552147173632154,0.0,1.0,0.0,1.0,1.0,1.0, 1.0
321,0.0228,0.132,3.45,0.132,3.45,0.8142657122954196,0.0,-0.5804923339545777,0.0,1.0,0.0,1.0,1.0,1.0, 1.0
322,0.0228,0.132,3.45,0.132,3.45,0.7449965425221715,0.0,-0.6670683260581409,0.0,1.0,0.0,1.0,1.0,1.0, 1.0
323,0.0228,0.132,3.45,0.132,3.45,0.9984836239315499,0.0,-0.05504954805008914,0.0,1.0,0.0,1.0,1.0,1.0, 1.0
324,0.0228,0.132,3.45,0.132,3.45,0.9862084524743407,0.0,-0.1655079704067632,0.0,1.0,0.0,1.0,1.0,1.0, 1.0
325,0.0228,0.132,3.45,0.132,3.45,0.961449297170216,0.0,-0.27498227028464545,0.0,1.0,0.0,1.0,1.0,1.0, 1.0
326,0.0228,0.132,3.45,0.132,3.45,0.9242663900460694,0.0,-0.38174813716795936,0.0,1.0,0.0,1.0,1.0,1.0, 1.0
327,0.0228,0.132,3.45,0.132,3.45,0.8751951140808737,0.0,-0.4837701027233562,0.0,1.0,0.0,1.0,1.0,1.0, 1.0
328,0.0228,0.132,3.45,0.132,3.45,0.8152177941279197,0.0,-0.5791545114537301,0.0,1.0,0.0,1.0,1.0,1.0, 1.0
329,0.0228,0.132,3.45,0.132,3.45,0.7454249016311544,0.0,-0.6665896159018561,0.0,1.0,0.0,1.0,1.0,1.0, 1.0
330,0.0228,0.132,3.45,0.132,3.45,0.998474329086613,0.0,-0.05521787894367164,0.0,1.0,0.0,1.0,1.0,1.0, 1.0
331,0.0228,0.132,3.45,0.132,3.45,0.9861568410795983,0.0,-0.1658152127879343,0.0,1.0,0.0,1.0,1.0,1.0, 1.0
332,0.0228,0.132,3.45,0.132,3.45,0.9614119899217811,0.0,-0.2751126780696245,0.0,1.0,0.0,1.0,1.0,1.0, 1.0
333,0.0228,0.132,3.45,0.132,3.45,0.9243659381158763,0.0,-0.38150702804949194,0.0,1.0,0.0,1.0,1.0,1.0, 1.0
334,0.0228,0.132,3.45,0.132,3.45,0.8754934797977147,0.0,-0.48322993163885075,0.0,1.0,0.0,1.0,1.0,1.0, 1.0
335,0.0228,0.132,3.45,0.132,3.45,0.8155973263729136,0.0,-0.5786199108338349,0.0,1.0,0.0,1.0,1.0,1.0, 1.0
336,0.0228,0.132,3.45,0.132,3.45,0.7456125881876838,0.0,-0.6663796728112761,0.0,1.0,0.0,1.0,1.0,1.0, 1.0
337,0.0228,0.132,3.45,0.132,3.45,0.9984461116040855,0.0,-0.05572577700384339,0.0,1.0,0.0,1.0,1.0,1.0, 1.0
338,0.0228,0.132,3.45,0.132,3.45,0.9859844328701555,0.0,-0.16683734035796083,0.0,1.0,0.0,1.0,1.0,1.0, 1.0
339,0.0228,0.132,3.45,0.132,3.45,0.9611178832033399,0.0,-0.2761383975232907,0.0,1.0,0.0,1.0,1.0,1.0, 1.0
340,0.0228,0.132,3.45,0.132,3.45,0.9240911904360076,0.0,-0.38217204471096833,0.0,1.0,0.0,1.0,1.0,1.0, 1.0
341,0.0228,0.132,3.45,0.132,3.45,0.8753662300453703,0.0,-0.48346040509658683,0.0,1.0,0.0,1.0,1.0,1.0, 1.0
342,0.0228,0.132,3.45,0.132,3.45,0.8156168048093488,0.0,-0.5785924539022164,0.0,1.0,0.0,1.0,1.0,1.0, 1.0
343,0.0228,0.132,3.45,0.132,3.45,0.7456516716971225,0.0,-0.6663359396695383,0.0,1.0,0.0,1.0,1.0,1.0, 1.0
344,0.0228,0.132,3.45,0.132,3.45,0.9980099219086196,0.0,-0.06305708343993609,0.0,1.0,0.0,1.0,1.0,1.0, 1.0
345,0.0228,0.132,3.45,0.132,3.45,0.9823087265010123,0.0,-0.1872686995735249,0.0,1.0,0.0,1.0,1.0,1.0, 1.0
346,0.0228,0.132,3.45,0.132,3.45,0.9517014526609391,0.0,-0.30702499084448875,0.0,1.0,0.0,1.0,1.0,1.0, 1.0
347,0.0228,0.132,3.45,0.132,3.45,0.9076984334784807,0.0,-0.4196231093025173,0.0,1.0,0.0,1.0,1.0,1.0, 1.0
348,0.0228,0.132,3.45,0.132,3.45,0.8531102202565857,0.0,-0.5217307275729118,0.0,1.0,0.0,1.0,1.0,1.0, 1.0
349,0.0228,0.132,3.45,0.132,3.45,0.7928002108078015,0.0,-0.6094816041055757,0.0,1.0,0.0,1.0,1.0,1.0, 1.0
350,0.0228,0.132,3.45,0.132,3.45,0.734691927615748,0.0,-0.678400892906441,0.0,1.0,0.0,1.0,1.0,1.0, 1.0
351,0.0228,0.132,3.45,0.132,3.45,0.9982842000658692,0.0,-0.05855472567477027,0.0,1.0,0.0,1.0,1.0,1.0, 1.0
352,0.0228,0.132,3.45,0.132,3.45,0.9845847697835207,0.0,-0.1749080647378256,0.0,1.0,0.0,1.0,1.0,1.0, 1.0
353,0.0228,0.132,3.45,0.132,3.45,0.957371344688278,0.0,-0.28886001517994525,0.0,1.0,0.0,1.0,1.0,1.0, 1.0
354,0.0228,0.132,3.45,0.132,3.45,0.9173043631511861,0.0,-0.3981867719347252,0.0,1.0,0.0,1.0,1.0,1.0, 1.0
355,0.0228,0.132,3.45,0.132,3.45,0.8660030979491153,0.0,-0.5000386328500379,0.0,1.0,0.0,1.0,1.0,1.0, 1.0
356,0.0228,0.132,3.45,0.132,3.45,0.8062348880634642,0.0,-0.5915955588654241,0.0,1.0,0.0,1.0,1.0,1.0, 1.0
357,0.0228,0.132,3.45,0.132,3.45,0.7412731466853651,0.0,-0.6712034877763798,0.0,1.0,0.0,1.0,1.0,1.0, 1.0
358,0.0228,0.132,3.45,0.132,3.45,0.9984068537123951,0.0,-0.05642476814410527,0.0,1.0,0.0,1.0,1.0,1.0, 1.0
359,0.0228,0.132,3.45,0.132,3.45,0.9855876547404329,0.0,-0.1691655249253035,0.0,1.0,0.0,1.0,1.0,1.0, 1.0
360,0.0228,0.132,3.45,0.132,3.45,0.9598587899228823,0.0,-0.2804836954401804,0.0,1.0,0.0,1.0,1.0,1.0, 1.0
361,0.0228,0.132,3.45,0.132,3.45,0.9214912675819287,0.0,-0.38839907797296647,0.0,1.0,0.0,1.0,1.0,1.0, 1.0
362,0.0228,0.132,3.45,0.132,3.45,0.8715313873815661,0.0,-0.4903397197951259,0.0,1.0,0.0,1.0,1.0,1.0, 1.0
363,0.0228,0.132,3.45,0.132,3.45,0.8117135215591083,0.0,-0.5840557840806914,0.0,1.0,0.0,1.0,1.0,1.0, 1.0
364,0.0228,0.132,3.45,0.132,3.45,0.7438350076632786,0.0,-0.6683632854777186,0.0,1.0,0.0,1.0,1.0,1.0, 1.0
365,0.0228,0.132,3.45,0.132,3.45,0.9984610089481825,0.0,-0.055458214992709934,0.0,1.0,0.0,1.0,1.0,1.0, 1.0
366,0.0228,0.132,3.45,0.132,3.45,0.9860275545757721,0.0,-0.16658229683049394,0.0,1.0,0.0,1.0,1.0,1.0, 1.0
367,0.0228,0.132,3.45,0.132,3.45,0.9609584841005671,0.0,-0.2766925944710847,0.0,1.0,0.0,1.0,1.0,1.0, 1.0
368,0.0228,0.132,3.45,0.132,3.45,0.9233528993724858,0.0,-0.3839523710311267,0.0,1.0,0.0,1.0,1.0,1.0, 1.0
369,0.0228,0.132,3.45,0.132,3.45,0.8739415141504562,0.0,-0.4860310996679205,0.0,1.0,0.0,1.0,1.0,1.0, 1.0
370,0.0228,0.132,3.45,0.132,3.45,0.8140219720157414,0.0,-0.5808340805045821,0.0,1.0,0.0,1.0,1.0,1.0, 1.0
371,0.0228,0.132,3.45,0.132,3.45,0.7448949889789442,0.0,-0.667181725914356,0.0,1.0,0.0,1.0,1.0,1.0, 1.0
372,0.0228,0.132,3.45,0.132,3.45,0.9984792781466567,0.0,-0.05512831497271989,0.0,1.0,0.0,1.0,1.0,1.0, 1.0
373,0.0228,0.132,3.45,0.132,3.45,0.9861855015070959,0.0,-0.16564466975184422,0.0,1.0,0.0,1.0,1.0,1.0, 1.0
374,0.0228,0.132,3.45,0.132,3.45,0.9613965757435678,0.0,-0.2751665389333201,0.0,1.0,0.0,1.0,1.0,1.0, 1.0
375,0.0228,0.132,3.45,0.132,3.45,0.9241750499924387,0.0,-0.38196920945473267,0.0,1.0,0.0,1.0,1.0,1.0, 1.0
376,0.0228,0.132,3.45,0.132,3.45,0.8750737958712087,0.0,-0.4839895161876488,0.0,1.0,0.0,1.0,1.0,1.0, 1.0
377,0.0228,0.132,3.45,0.132,3.45,0.8151092076247848,0.0,-0.579307327456934,0.0,1.0,0.0,1.0,1.0,1.0, 1.0
378,0.0228,0.132,3.45,0.132,3.45,0.7453811696064803,0.0,-0.6666385167360761,0.0,1.0,0.0,1.0,1.0,1.0, 1.0
379,0.0228,0.132,3.45,0.132,3.45,0.9984728650738458,0.0,-0.05524434551359697,0.0,1.0,0.0,1.0,1.0,1.0, 1.0
380,0.0228,0.132,3.45,0.132,3.45,0.9861547262519459,0.0,-0.16582778986330848,0.0,1.0,0.0,1.0,1.0,1.0, 1.0
381,0.0228,0.132,3.45,0.132,3.45,0.9614077631286599,0.0,-0.2751274486414371,0.0,1.0,0.0,1.0,1.0,1.0, 1.0
382,0.0228,0.132,3.45,0.132,3.45,0.9243522893710315,0.0,-0.38154009636541836,0.0,1.0,0.0,1.0,1.0,1.0, 1.0
383,0.0228,0.132,3.45,0.132,3.45,0.8754684752986321,0.0,-0.4832752308553464,0.0,1.0,0.0,1.0,1.0,1.0, 1.0
384,0.0228,0.132,3.45,0.132,3.45,0.8155707542898493,0.0,-0.578657363857997,0.0,1.0,0.0,1.0,1.0,1.0, 1.0
385,0.0228,0.132,3.45,0.132,3.45,0.7456016685100396,0.0,-0.6663918906432198,0.0,1.0,0.0,1.0,1.0,1.0, 1.0
386,0.0228,0.132,3.45,0.132,3.45,0.998445830086926,0.0,-0.05573082075502961,0.0,1.0,0.0,1.0,1.0,1.0, 1.0
387,0.0228,0.132,3.45,0.132,3.45,0.9859862710717137,0.0,-0.16682647649008617,0.0,1.0,0.0,1.0,1.0,1.0, 1.0
388,0.0228,0.132,3.45,0.132,3.45,0.9611222851153228,0.0,-0.27612307591851143,0.0,1.0,0.0,1.0,1.0,1.0, 1.0
389,0.0228,0.132,3.45,0.132,3.45,0.9240938048916195,0.0,-0.3821657229016355,0.0,1.0,0.0,1.0,1.0,1.0, 1.0
390,0.0228,0.132,3.45,0.132,3.45,0.8753677430707827,0.0,-0.48345766556252295,0.0,1.0,0.0,1.0,1.0,1.0, 1.0
391,0.0228,0.132,3.45,0.132,3.45,0.8156177548038795,0.0,-0.5785911147336076,0.0,1.0,0.0,1.0,1.0,1.0, 1.0
392,0.0228,0.132,3.45,0.132,3.45,0.7456509036522884,0.0,-0.6663367991357867,0.0,1.0,0.0,1.0,1.0,1.0, 1.0
393,0.0228,0.132,3.45,0.132,3.45,0.07127785334904618,0.0,-0.9974564991125938,0.0,1.0,0.0,1.0,1.0,1.0, 1.0
394,0.0228,0.132,3.45,0.132,3.45,0.20995383794025996,0.0,-0.9777112998907985,0.0,1.0,0.0,1.0,1.0,1.0, 1.0
395,0.0228,0.132,3.45,0.132,3.45,0.3403222141626798,0.0,-0.9403088803937838,0.0,1.0,0.0,1.0,1.0,1.0, 1.0
396,0.0228,0.132,3.45,0.132,3.45,0.4589616134745286,0.0,-0.8884560975967567,0.0,1.0,0.0,1.0,1.0,1.0, 1.0
397,0.0228,0.132,3.45,0.132,3.45,0.5624307234848314,0.0,-0.8268444117730549,0.0,1.0,0.0,1.0,1.0,1.0, 1.0
398,0.0228,0.132,3.45,0.132,3.45,0.6468590507583416,0.0,-0.7626095779965114,0.0,1.0,0.0,1.0,1.0,1.0, 1.0
399,0.0228,0.132,3.45,0.132,3.45,0.7069574178898288,0.0,-0.7072561129396805,0.0,1.0,0.0,1.0,1.0,1.0, 1.0
400,0.0228,0.132,3.45,0.132,3.45,0.08526450700386087,0.0,-0.9963583511194094,0.0,1.0,0.0,1.0,1.0,1.0, 1.0
401,0.0228,0.132,3.45,0.132,3.45,0.2480948173136518,0.0,-0.9687357542808596,0.0,1.0,0.0,1.0,1.0,1.0, 1.0
402,0.0228,0.132,3.45,0.132,3.45,0.3949091032769233,0.0,-0.9187201968766205,0.0,1.0,0.0,1.0,1.0,1.0, 1.0
403,0.0228,0.132,3.45,0.132,3.45,0.5215101029528957,0.0,-0.8532451069405909,0.0,1.0,0.0,1.0,1.0,1.0, 1.0
404,0.0228,0.132,3.45,0.132,3.45,0.6257959762161261,0.0,-0.7799867922931168,0.0,1.0,0.0,1.0,1.0,1.0, 1.0
405,0.0228,0.132,3.45,0.132,3.45,0.7064219567141647,0.0,-0.7077909430560203,0.0,1.0,0.0,1.0,1.0,1.0, 1.0
406,0.0228,0.132,3.45,0.132,3.45,0.7620436414947973,0.0,-0.6475256662537393,0.0,1.0,0.0,1.0,1.0,1.0, 1.0
407,0.0228,0.132,3.45,0.132,3.45,0.10646815025875518,0.0,-0.9943161132056944,0.0,1.0,0.0,1.0,1.0,1.0, 1.0
408,0.0228,0.132,3.45,0.132,3.45,0.30418088913676006,0.0,-0.9526142906150264,0.0,1.0,0.0,1.0,1.0,1.0, 1.0
409,0.0228,0.132,3.45,0.132,3.45,0.4711946238174747,0.0,-0.8820292662295897,0.0,1.0,0.0,1.0,1.0,1.0, 1.0
410,0.0228,0.132,3.45,0.132,3.45,0.6040014653542847,0.0,-0.7969832055005155,0.0,1.0,0.0,1.0,1.0,1.0, 1.0
411,0.0228,0.132,3.45,0.132,3.45,0.7049546366384309,0.0,-0.7092523953304478,0.0,1.0,0.0,1.0,1.0,1.0, 1.0
412,0.0228,0.132,3.45,0.132,3.45,0.7778463609681592,0.0,-0.6284544842139262,0.0,1.0,0.0,1.0,1.0,1.0, 1.0
413,0.0228,0.132,3.45,0.132,3.45,0.8259827875656996,0.0,-0.5636953384987287,0.0,1.0,0.0,1.0,1.0,1.0, 1.0
414,0.0228,0.132,3.45,0.132,3.45,0.13920421633583,0.0,-0.99026369526219,0.0,1.0,0.0,1.0,1.0,1.0, 1.0
415,0.0228,0.132,3.45,0.132,3.45,0.3852860973088914,0.0,-0.9227971733921184,0.0,1.0,0.0,1.0,1.0,1.0, 1.0
416,0.0228,0.132,3.45,0.132,3.45,0.571671315004385,0.0,-0.8204827283990549,0.0,1.0,0.0,1.0,1.0,1.0, 1.0
417,0.0228,0.132,3.45,0.132,3.45,0.7025815647486235,0.0,-0.7116032215184075,0.0,1.0,0.0,1.0,1.0,1.0, 1.0
418,0.0228,0.132,3.45,0.132,3.45,0.7916479941030377,0.0,-0.6109774573849978,0.0,1.0,0.0,1.0,1.0,1.0, 1.0
419,0.0228,0.132,3.45,0.132,3.45,0.8506984855941182,0.0,-0.5256539608981121,0.0,1.0,0.0,1.0,1.0,1.0, 1.0
420,0.0228,0.132,3.45,0.132,3.45,0.8874589473595641,0.0,-0.46088677215933876,0.0,1.0,0.0,1.0,1.0,1.0, 1.0
421,0.0228,0.132,3.45,0.132,3.45,0.1955974100568914,0.0,-0.9806842780319446,0.0,1.0,0.0,1.0,1.0,1.0, 1.0
422,0.0228,0.132,3.45,0.132,3.45,0.5082958506259965,0.0,-0.8611825173773527,0.0,1.0,0.0,1.0,1.0,1.0, 1.0
423,0.0228,0.132,3.45,0.132,3.45,0.7008231786959294,0.0,-0.7133350350308987,0.0,1.0,0.0,1.0,1.0,1.0, 1.0
424,0.0228,0.132,3.45,0.132,3.45,0.8119235282027143,0.0,-0.5837638087025061,0.0,1.0,0.0,1.0,1.0,1.0, 1.0
425,0.0228,0.132,3.45,0.132,3.45,0.8773007329922741,0.0,-0.47994106293504285,0.0,1.0,0.0,1.0,1.0,1.0, 1.0
426,0.0228,0.132,3.45,0.132,3.45,0.9165388447483636,0.0,-0.39994567889569055,0.0,1.0,0.0,1.0,1.0,1.0, 1.0
427,0.0228,0.132,3.45,0.132,3.45,0.9394776454043643,0.0,-0.34261020677363285,0.0,1.0,0.0,1.0,1.0,1.0, 1.0
428,0.0228,0.132,3.45,0.132,3.45,0.3168007455071827,0.0,-0.9484921125903437,0.0,1.0,0.0,1.0,1.0,1.0, 1.0
429,0.0228,0.132,3.45,0.132,3.45,0.7016305995162008,0.0,-0.7125408772993564,0.0,1.0,0.0,1.0,1.0,1.0, 1.0
430,0.0228,0.132,3.45,0.132,3.45,0.8531958052793573,0.0,-0.5215907570631488,0.0,1.0,0.0,1.0,1.0,1.0, 1.0
431,0.0228,0.132,3.45,0.132,3.45,0.9179841025850534,0.0,-0.3966171799117055,0.0,1.0,0.0,1.0,1.0,1.0, 1.0
432,0.0228,0.132,3.45,0.132,3.45,0.9501108749880982,0.0,-0.3119123678685256,0.0,1.0,0.0,1.0,1.0,1.0, 1.0
433,0.0228,0.132,3.45,0.132,3.45,0.9676191247683401,0.0,-0.2524147962829263,0.0,1.0,0.0,1.0,1.0,1.0, 1.0
434,0.0228,0.132,3.45,0.132,3.45,0.9772918173021711,0.0,-0.21189786179718678,0.0,1.0,0.0,1.0,1.0,1.0, 1.0
435,0.0228,0.132,3.45,0.132,3.45,0.7051500827679773,0.0,-0.7090580799711086,0.0,1.0,0.0,1.0,1.0,1.0, 1.0
436,0.0228,0.132,3.45,0.132,3.45,0.9462051453549022,0.0,-0.3235673390561978,0.0,1.0,0.0,1.0,1.0,1.0, 1.0
437,0.0228,0.132,3.45,0.132,3.45,0.9794617434380068,0.0,-0.20163008987098147,0.0,1.0,0.0,1.0,1.0,1.0, 1.0
438,0.0228,0.132,3.45,0.132,3.45,0.9896069958147701,0.0,-0.14379844865110913,0.0,1.0,0.0,1.0,1.0,1.0, 1.0
439,0.0228,0.132,3.45,0.132,3.45,0.9939757626632716,0.0,-0.10960010601257424,0.0,1.0,0.0,1.0,1.0,1.0, 1.0
440,0.0228,0.132,3.45,0.132,3.45,0.9962110645363985,0.0,-0.08696847069631308,0.0,1.0,0.0,1.0,1.0,1.0, 1.0
441,0.0228,0.132,3.45,0.132,3.45,0.9974013090283106,0.0,-0.07204601827035476,0.0,1.0,0.0,1.0,1.0,1.0, 1.0
442,0.0228,0.132,3.45,0.132,3.45,0.07092957918450256,0.0,-0.9974813255378315,0.0,1.0,0.0,1.0,1.0,1.0, 1.0
443,0.0228,0.132,3.45,0.132,3.45,0.20916572801460326,0.0,-0.9778802064793627,0.0,1.0,0.0,1.0,1.0,1.0, 1.0
444,0.0228,0.132,3.45,0.132,3.45,0.3396082304509696,0.0,-0.9405669831596053,0.0,1.0,0.0,1.0,1.0,1.0, 1.0
445,0.0228,0.132,3.45,0.132,3.45,0.458633187880942,0.0,-0.8886256798979897,0.0,1.0,0.0,1.0,1.0,1.0, 1.0
446,0.0228,0.132,3.45,0.132,3.45,0.5624493570883182,0.0,-0.8268317366374718,0.0,1.0,0.0,1.0,1.0,1.0, 1.0
447,0.0228,0.132,3.45,0.132,3.45,0.6469846289207597,0.0,-0.7625030425777113,0.0,1.0,0.0,1.0,1.0,1.0, 1.0
448,0.0228,0.132,3.45,0.132,3.45,0.7069869283500572,0.0,-0.7072266137117235,0.0,1.0,0.0,1.0,1.0,1.0, 1.0
449,0.0228,0.132,3.45,0.132,3.45,0.08444534663337004,0.0,-0.9964281125259213,0.0,1.0,0.0,1.0,1.0,1.0, 1.0
450,0.0228,0.132,3.45,0.132,3.45,0.24625452956076657,0.0,-0.969205193274781,0.0,1.0,0.0,1.0,1.0,1.0, 1.0
451,0.0228,0.132,3.45,0.132,3.45,0.39317327784041217,0.0,-0.91946439495623,0.0,1.0,0.0,1.0,1.0,1.0, 1.0
452,0.0228,0.132,3.45,0.132,3.45,0.5205472344825139,0.0,-0.8538328739704314,0.0,1.0,0.0,1.0,1.0,1.0, 1.0
453,0.0228,0.132,3.45,0.132,3.45,0.625565466765507,0.0,-0.7801716777674342,0.0,1.0,0.0,1.0,1.0,1.0, 1.0
454,0.0228,0.132,3.45,0.132,3.45,0.7064829021271039,0.0,-0.7077301102836201,0.0,1.0,0.0,1.0,1.0,1.0, 1.0
455,0.0228,0.132,3.45,0.132,3.45,0.7620144814937596,0.0,-0.6475599817729605,0.0,1.0,0.0,1.0,1.0,1.0, 1.0
456,0.0228,0.132,3.45,0.132,3.45,0.10522408276154485,0.0,-0.9944485368318421,0.0,1.0,0.0,1.0,1.0,1.0, 1.0
457,0.0228,0.132,3.45,0.132,3.45,0.3015623523248304,0.0,-0.9534464576788331,0.0,1.0,0.0,1.0,1.0,1.0, 1.0
458,0.0228,0.132,3.45,0.132,3.45,0.46902316919677534,0.0,-0.8831858619546699,0.0,1.0,0.0,1.0,1.0,1.0, 1.0
459,0.0228,0.132,3.45,0.132,3.45,0.6030811321020374,0.0,-0.7976798531381651,0.0,1.0,0.0,1.0,1.0,1.0, 1.0
460,0.0228,0.132,3.45,0.132,3.45,0.7049663321753918,0.0,-0.7092407704716185,0.0,1.0,0.0,1.0,1.0,1.0, 1.0
461,0.0228,0.132,3.45,0.132,3.45,0.7781219627665229,0.0,-0.6281132151613865,0.0,1.0,0.0,1.0,1.0,1.0, 1.0
462,0.0228,0.132,3.45,0.132,3.45,0.8260441677477358,0.0,-0.5636053875984068,0.0,1.0,0.0,1.0,1.0,1.0, 1.0
463,0.0228,0.132,3.45,0.132,3.45,0.13760165947601322,0.0,-0.990487649246293,0.0,1.0,0.0,1.0,1.0,1.0, 1.0
464,0.0228,0.132,3.45,0.132,3.45,0.38268853100554856,0.0,-0.9238774205687761,0.0,1.0,0.0,1.0,1.0,1.0, 1.0
465,0.0228,0.132,3.45,0.132,3.45,0.5701681031903187,0.0,-0.8215280482761096,0.0,1.0,0.0,1.0,1.0,1.0, 1.0
466,0.0228,0.132,3.45,0.132,3.45,0.7025439895706305,0.0,-0.7116403183618686,0.0,1.0,0.0,1.0,1.0,1.0, 1.0
467,0.0228,0.132,3.45,0.132,3.45,0.7923436461650073,0.0,-0.6100750334032213,0.0,1.0,0.0,1.0,1.0,1.0, 1.0
468,0.0228,0.132,3.45,0.132,3.45,0.8513124052471991,0.0,-0.5246591166388216,0.0,1.0,0.0,1.0,1.0,1.0, 1.0
469,0.0228,0.132,3.45,0.132,3.45,0.8876733464884288,0.0,-0.46047370167473617,0.0,1.0,0.0,1.0,1.0,1.0, 1.0
470,0.0228,0.132,3.45,0.132,3.45,0.19370478944289538,0.0,-0.9810598628763098,0.0,1.0,0.0,1.0,1.0,1.0, 1.0
471,0.0228,0.132,3.45,0.132,3.45,0.5066258453807823,0.0,-0.8621660239143083,0.0,1.0,0.0,1.0,1.0,1.0, 1.0
472,0.0228,0.132,3.45,0.132,3.45,0.7009647840319367,0.0,-0.7131958858175363,0.0,1.0,0.0,1.0,1.0,1.0, 1.0
473,0.0228,0.132,3.45,0.132,3.45,0.81305807353567,0.0,-0.5821825908239316,0.0,1.0,0.0,1.0,1.0,1.0, 1.0
474,0.0228,0.132,3.45,0.132,3.45,0.8784740269826238,0.0,-0.47779010445689685,0.0,1.0,0.0,1.0,1.0,1.0, 1.0
475,0.0228,0.132,3.45,0.132,3.45,0.9173127429868069,0.0,-0.3981674667197463,0.0,1.0,0.0,1.0,1.0,1.0, 1.0
476,0.0228,0.132,3.45,0.132,3.45,0.9397527725151158,0.0,-0.3418548325680846,0.0,1.0,0.0,1.0,1.0,1.0, 1.0
477,0.0228,0.132,3.45,0.132,3.45,0.31474056849204374,0.0,-0.9491777360143383,0.0,1.0,0.0,1.0,1.0,1.0, 1.0
478,0.0228,0.132,3.45,0.132,3.45,0.7019387907067559,0.0,-0.7122372737375776,0.0,1.0,0.0,1.0,1.0,1.0, 1.0
479,0.0228,0.132,3.45,0.132,3.45,0.8545399574361648,0.0,-0.5193856574309669,0.0,1.0,0.0,1.0,1.0,1.0, 1.0
480,0.0228,0.132,3.45,0.132,3.45,0.919257181852587,0.0,-0.39365750800974164,0.0,1.0,0.0,1.0,1.0,1.0, 1.0
481,0.0228,0.132,3.45,0.132,3.45,0.9510104494703892,0.0,-0.3091587375412967,0.0,1.0,0.0,1.0,1.0,1.0, 1.0
482,0.0228,0.132,3.45,0.132,3.45,0.9681150920106589,0.0,-0.2505058255234667,0.0,1.0,0.0,1.0,1.0,1.0, 1.0
483,0.0228,0.132,3.45,0.132,3.45,0.977471485922956,0.0,-0.2110675110185568,0.0,1.0,0.0,1.0,1.0,1.0, 1.0
484,0.0228,0.132,3.45,0.132,3.45,0.7051303129431095,0.0,-0.709077740285755,0.0,1.0,0.0,1.0,1.0,1.0, 1.0
485,0.0228,0.132,3.45,0.132,3.45,0.9471598970892797,0.0,-0.3207617953338976,0.0,1.0,0.0,1.0,1.0,1.0, 1.0
486,0.0228,0.132,3.45,0.132,3.45,0.9799427295047433,0.0,-0.19927931877340818,0.0,1.0,0.0,1.0,1.0,1.0, 1.0
487,0.0228,0.132,3.45,0.132,3.45,0.9898694426502703,0.0,-0.14198058496584393,0.0,1.0,0.0,1.0,1.0,1.0, 1.0
488,0.0228,0.132,3.45,0.132,3.45,0.9941323343784919,0.0,-0.10817070649288654,0.0,1.0,0.0,1.0,1.0,1.0, 1.0
489,0.0228,0.132,3.45,0.132,3.45,0.9962834613883159,0.0,-0.08613515289425108,0.0,1.0,0.0,1.0,1.0,1.0, 1.0
490,0.0228,0.132,3.45,0.132,3.45,0.9974286687225421,0.0,-0.07166624596263778,0.0,1.0,0.0,1.0,1.0,1.0, 1.0
491,0.0228,0.132,3.45,0.132,3.45,0.6663359396695383,0.0,-0.7456516716971225,0.0,1.0,0.0,1.0,1.0,1.0, 1.0
492,0.0228,0.132,3.45,0.132,3.45,0.6663796728112762,0.0,-0.7456125881876837,0.0,1.0,0.0,1.0,1.0,1.0, 1.0
493,0.0228,0.132,3.45,0.132,3.45,0.6665863541195256,0.0,-0.7454278184382701,0.0,1.0,0.0,1.0,1.0,1.0, 1.0
494,0.0228,0.132,3.45,0.132,3.45,0.6670650963718565,0.0,-0.744999434363816,0.0,1.0,0.0,1.0,1.0,1.0, 1.0
495,0.0228,0.132,3.45,0.132,3.45,0.6681745722090043,0.0,-0.7440045302639723,0.0,1.0,0.0,1.0,1.0,1.0, 1.0
496,0.0228,0.132,3.45,0.132,3.45,0.6709704481644252,0.0,-0.7414840913263281,0.0,1.0,0.0,1.0,1.0,1.0, 1.0
497,0.0228,0.132,3.45,0.132,3.45,0.6781552623283049,0.0,-0.7349186622861253,0.0,1.0,0.0,1.0,1.0,1.0, 1.0
498,0.0228,0.132,3.45,0.132,3.45,0.5785924539022165,0.0,-0.8156168048093488,0.0,1.0,0.0,1.0,1.0,1.0, 1.0
499,0.0228,0.132,3.45,0.132,3.45,0.578619910833835,0.0,-0.8155973263729136,0.0,1.0,0.0,1.0,1.0,1.0, 1.0
500,0.0228,0.132,3.45,0.132,3.45,0.5791506133334684,0.0,-0.8152205634522888,0.0,1.0,0.0,1.0,1.0,1.0, 1.0
501,0.0228,0.132,3.45,0.132,3.45,0.580488477005002,0.0,-0.8142684619119258,0.0,1.0,0.0,1.0,1.0,1.0, 1.0
502,0.0228,0.132,3.45,0.132,3.45,0.583510555478729,0.0,-0.8121055544970157,0.0,1.0,0.0,1.0,1.0,1.0, 1.0
503,0.0228,0.132,3.45,0.132,3.45,0.5909604718970888,0.0,-0.8067005148474682,0.0,1.0,0.0,1.0,1.0,1.0, 1.0
504,0.0228,0.132,3.45,0.132,3.45,0.608895038884558,0.0,-0.7932507999502885,0.0,1.0,0.0,1.0,1.0,1.0, 1.0
505,0.0228,0.132,3.45,0.132,3.45,0.48346040509658683,0.0,-0.8753662300453703,0.0,1.0,0.0,1.0,1.0,1.0, 1.0
506,0.0228,0.132,3.45,0.132,3.45,0.4832299316388508,0.0,-0.8754934797977147,0.0,1.0,0.0,1.0,1.0,1.0, 1.0
507,0.0228,0.132,3.45,0.132,3.45,0.48377010272335613,0.0,-0.8751951140808736,0.0,1.0,0.0,1.0,1.0,1.0, 1.0
508,0.0228,0.132,3.45,0.132,3.45,0.4855170275649504,0.0,-0.8742272107092613,0.0,1.0,0.0,1.0,1.0,1.0, 1.0
509,0.0228,0.132,3.45,0.132,3.45,0.48951588330243057,0.0,-0.8719943807127664,0.0,1.0,0.0,1.0,1.0,1.0, 1.0
510,0.0228,0.132,3.45,0.132,3.45,0.49907791554480174,0.0,-0.8665571153798552,0.0,1.0,0.0,1.0,1.0,1.0, 1.0
511,0.0228,0.132,3.45,0.132,3.45,0.5208125360953677,0.0,-0.8536710738017961,0.0,1.0,0.0,1.0,1.0,1.0, 1.0
512,0.0228,0.132,3.45,0.132,3.45,0.38217204471096833,0.0,-0.9240911904360076,0.0,1.0,0.0,1.0,1.0,1.0, 1.0
513,0.0228,0.132,3.45,0.132,3.45,0.3815070280494921,0.0,-0.9243659381158763,0.0,1.0,0.0,1.0,1.0,1.0, 1.0
514,0.0228,0.132,3.45,0.132,3.45,0.38174713753250245,0.0,-0.9242668029231281,0.0,1.0,0.0,1.0,1.0,1.0, 1.0
515,0.0228,0.132,3.45,0.132,3.45,0.383379739428109,0.0,-0.9235908051707938,0.0,1.0,0.0,1.0,1.0,1.0, 1.0
516,0.0228,0.132,3.45,0.132,3.45,0.38745367713145856,0.0,-0.9218891734245018,0.0,1.0,0.0,1.0,1.0,1.0, 1.0
517,0.0228,0.132,3.45,0.132,3.45,0.3970745196554729,0.0,-0.9177863726599864,0.0,1.0,0.0,1.0,1.0,1.0, 1.0
518,0.0228,0.132,3.45,0.132,3.45,0.41852022253887555,0.0,-0.9082074781271128,0.0,1.0,0.0,1.0,1.0,1.0, 1.0
519,0.0228,0.132,3.45,0.132,3.45,0.2761383975232908,0.0,-0.9611178832033399,0.0,1.0,0.0,1.0,1.0,1.0, 1.0
520,0.0228,0.132,3.45,0.132,3.45,0.2751121301046049,0.0,-0.9614121467244457,0.0,1.0,0.0,1.0,1.0,1.0, 1.0
521,0.0228,0.132,3.45,0.132,3.45,0.27497956965521214,0.0,-0.9614500695679596,0.0,1.0,0.0,1.0,1.0,1.0, 1.0
522,0.0228,0.132,3.45,0.132,3.45,0.2761775732779827,0.0,-0.961106626768479,0.0,1.0,0.0,1.0,1.0,1.0, 1.0
523,0.0228,0.132,3.45,0.132,3.45,0.2796085522260687,0.0,-0.9601140856804684,0.0,1.0,0.0,1.0,1.0,1.0, 1.0
524,0.0228,0.132,3.45,0.132,3.45,0.2878201890505674,0.0,-0.9576844672306718,0.0,1.0,0.0,1.0,1.0,1.0, 1.0
525,0.0228,0.132,3.45,0.132,3.45,0.3059705918620141,0.0,-0.9520409638852778,0.0,1.0,0.0,1.0,1.0,1.0, 1.0
526,0.0228,0.132,3.45,0.132,3.45,0.16683734035796083,0.0,-0.9859844328701554,0.0,1.0,0.0,1.0,1.0,1.0, 1.0
527,0.0228,0.132,3.45,0.132,3.45,0.1658146372942796,0.0,-0.9861569378445637,0.0,1.0,0.0,1.0,1.0,1.0, 1.0
528,0.0228,0.132,3.45,0.132,3.45,0.16550570125318245,0.0,-0.986208833286689,0.0,1.0,0.0,1.0,1.0,1.0, 1.0
529,0.0228,0.132,3.45,0.132,3.45,0.16620222462179532,0.0,-0.9860916897179319,0.0,1.0,0.0,1.0,1.0,1.0, 1.0
530,0.0228,0.132,3.45,0.132,3.45,0.1685204349784211,0.0,-0.9856981601863137,0.0,1.0,0.0,1.0,1.0,1.0, 1.0
531,0.0228,0.132,3.45,0.132,3.45,0.17414733721425135,0.0,-0.9847196072695952,0.0,1.0,0.0,1.0,1.0,1.0, 1.0
532,0.0228,0.132,3.45,0.132,3.45,0.1864989661725448,0.0,-0.9824551570512375,0.0,1.0,0.0,1.0,1.0,1.0, 1.0
533,0.0228,0.132,3.45,0.132,3.45,0.05572577700384339,0.0,-0.9984461116040855,0.0,1.0,0.0,1.0,1.0,1.0, 1.0
534,0.0228,0.132,3.45,0.132,3.45,0.05521787894367164,0.0,-0.998474329086613,0.0,1.0,0.0,1.0,1.0,1.0, 1.0
535,0.0228,0.132,3.45,0.132,3.45,0.055048968867893976,0.0,-0.9984836558635206,0.0,1.0,0.0,1.0,1.0,1.0, 1.0
536,0.0228,0.132,3.45,0.132,3.45,0.05528183727887257,0.0,-0.9984707899919116,0.0,1.0,0.0,1.0,1.0,1.0, 1.0
537,0.0228,0.132,3.45,0.132,3.45,0.05614459456939885,0.0,-0.9984226482310173,0.0,1.0,0.0,1.0,1.0,1.0, 1.0
538,0.0228,0.132,3.45,0.132,3.45,0.05824108628649648,0.0,-0.9983025472611843,0.0,1.0,0.0,1.0,1.0,1.0, 1.0
539,0.0228,0.132,3.45,0.132,3.45,0.06276000445962218,0.0,-0.9980286478053765,0.0,1.0,0.0,1.0,1.0,1.0, 1.0
540,0.0228,0.132,3.45,0.132,3.45,0.6663367991357867,0.0,-0.7456509036522884,0.0,1.0,0.0,1.0,1.0,1.0, 1.0
541,0.0228,0.132,3.45,0.132,3.45,0.6663918906432198,0.0,-0.7456016685100396,0.0,1.0,0.0,1.0,1.0,1.0, 1.0
542,0.0228,0.132,3.45,0.132,3.45,0.6666358325784583,0.0,-0.7453835701988781,0.0,1.0,0.0,1.0,1.0,1.0, 1.0
543,0.0228,0.132,3.45,0.132,3.45,0.6671790683985259,0.0,-0.7448973692334234,0.0,1.0,0.0,1.0,1.0,1.0, 1.0
544,0.0228,0.132,3.45,0.132,3.45,0.6683532272271496,0.0,-0.7438440452507864,0.0,1.0,0.0,1.0,1.0,1.0, 1.0
545,0.0228,0.132,3.45,0.132,3.45,0.6711603807444129,0.0,-0.7413121766968453,0.0,1.0,0.0,1.0,1.0,1.0, 1.0
546,0.0228,0.132,3.45,0.132,3.45,0.6782963992371137,0.0,-0.7347884013659757,0.0,1.0,0.0,1.0,1.0,1.0, 1.0
547,0.0228,0.132,3.45,0.132,3.45,0.5785911147336078,0.0,-0.8156177548038794,0.0,1.0,0.0,1.0,1.0,1.0, 1.0
548,0.0228,0.132,3.45,0.132,3.45,0.5786573638579969,0.0,-0.8155707542898493,0.0,1.0,0.0,1.0,1.0,1.0, 1.0
549,0.0228,0.132,3.45,0.132,3.45,0.5793041202645955,0.0,-0.8151114870031357,0.0,1.0,0.0,1.0,1.0,1.0, 1.0
550,0.0228,0.132,3.45,0.132,3.45,0.5808309075128749,0.0,-0.8140242360506044,0.0,1.0,0.0,1.0,1.0,1.0, 1.0
551,0.0228,0.132,3.45,0.132,3.45,0.5840449214015033,0.0,-0.81172133751991,0.0,1.0,0.0,1.0,1.0,1.0, 1.0
552,0.0228,0.132,3.45,0.132,3.45,0.5915369062634872,0.0,-0.806277922634759,0.0,1.0,0.0,1.0,1.0,1.0, 1.0
553,0.0228,0.132,3.45,0.132,3.45,0.6092773083832362,0.0,-0.7929572255104804,0.0,1.0,0.0,1.0,1.0,1.0, 1.0
554,0.0228,0.132,3.45,0.132,3.45,0.48345766556252284,0.0,-0.8753677430707827,0.0,1.0,0.0,1.0,1.0,1.0, 1.0
555,0.0228,0.132,3.45,0.132,3.45,0.4832752308553463,0.0,-0.8754684752986321,0.0,1.0,0.0,1.0,1.0,1.0, 1.0
556,0.0228,0.132,3.45,0.132,3.45,0.48398951618764896,0.0,-0.8750737958712086,0.0,1.0,0.0,1.0,1.0,1.0, 1.0
557,0.0228,0.132,3.45,0.132,3.45,0.48602744287728733,0.0,-0.8739435478165424,0.0,1.0,0.0,1.0,1.0,1.0, 1.0
558,0.0228,0.132,3.45,0.132,3.45,0.4903210127380506,0.0,-0.8715419120544533,0.0,1.0,0.0,1.0,1.0,1.0, 1.0
559,0.0228,0.132,3.45,0.132,3.45,0.4999363469274792,0.0,-0.8660621507841151,0.0,1.0,0.0,1.0,1.0,1.0, 1.0
560,0.0228,0.132,3.45,0.132,3.45,0.5213301496590468,0.0,-0.8533550697432317,0.0,1.0,0.0,1.0,1.0,1.0, 1.0
561,0.0228,0.132,3.45,0.132,3.45,0.3821657229016355,0.0,-0.9240938048916195,0.0,1.0,0.0,1.0,1.0,1.0, 1.0
562,0.0228,0.132,3.45,0.132,3.45,0.3815400963654184,0.0,-0.9243522893710315,0.0,1.0,0.0,1.0,1.0,1.0, 1.0
563,0.0228,0.132,3.45,0.132,3.45,0.38196838694072516,0.0,-0.924175389943868,0.0,1.0,0.0,1.0,1.0,1.0, 1.0
564,0.0228,0.132,3.45,0.132,3.45,0.3839429170579008,0.0,-0.9233568305054497,0.0,1.0,0.0,1.0,1.0,1.0, 1.0
565,0.0228,0.132,3.45,0.132,3.45,0.38836352447870975,0.0,-0.9215062522058516,0.0,1.0,0.0,1.0,1.0,1.0, 1.0
566,0.0228,0.132,3.45,0.132,3.45,0.3980208860609639,0.0,-0.9173763536625769,0.0,1.0,0.0,1.0,1.0,1.0, 1.0
567,0.0228,0.132,3.45,0.132,3.45,0.4189897699985957,0.0,-0.907990954049942,0.0,1.0,0.0,1.0,1.0,1.0, 1.0
568,0.0228,0.132,3.45,0.132,3.45,0.27612307591851143,0.0,-0.9611222851153228,0.0,1.0,0.0,1.0,1.0,1.0, 1.0
569,0.0228,0.132,3.45,0.132,3.45,0.2751269972556999,0.0,-0.9614078923022538,0.0,1.0,0.0,1.0,1.0,1.0, 1.0
570,0.0228,0.132,3.45,0.132,3.45,0.2751643164460395,0.0,-0.9613972118509517,0.0,1.0,0.0,1.0,1.0,1.0, 1.0
571,0.0228,0.132,3.45,0.132,3.45,0.27668208687450513,0.0,-0.9609615095323896,0.0,1.0,0.0,1.0,1.0,1.0, 1.0
572,0.0228,0.132,3.45,0.132,3.45,0.28043934053862696,0.0,-0.9598717499115494,0.0,1.0,0.0,1.0,1.0,1.0, 1.0
573,0.0228,0.132,3.45,0.132,3.45,0.2886606048400956,0.0,-0.9574314885219465,0.0,1.0,0.0,1.0,1.0,1.0, 1.0
574,0.0228,0.132,3.45,0.132,3.45,0.30625734249641157,0.0,-0.9519487592129293,0.0,1.0,0.0,1.0,1.0,1.0, 1.0
575,0.0228,0.132,3.45,0.132,3.45,0.16682647649008617,0.0,-0.9859862710717137,0.0,1.0,0.0,1.0,1.0,1.0, 1.0
576,0.0228,0.132,3.45,0.132,3.45,0.1658273157709377,0.0,-0.9861548059732841,0.0,1.0,0.0,1.0,1.0,1.0, 1.0
577,0.0228,0.132,3.45,0.132,3.45,0.16564280182022814,0.0,-0.9861858152524526,0.0,1.0,0.0,1.0,1.0,1.0, 1.0
578,0.0228,0.132,3.45,0.132,3.45,0.16657499192626163,0.0,-0.9860287886592186,0.0,1.0,0.0,1.0,1.0,1.0, 1.0
579,0.0228,0.132,3.45,0.132,3.45,0.16912930164327997,0.0,-0.9855938713920944,0.0,1.0,0.0,1.0,1.0,1.0, 1.0
580,0.0228,0.132,3.45,0.132,3.45,0.17473651351575265,0.0,-0.9846152298458314,0.0,1.0,0.0,1.0,1.0,1.0, 1.0
581,0.0228,0.132,3.45,0.132,3.45,0.1866088018040513,0.0,-0.9824343006477616,0.0,1.0,0.0,1.0,1.0,1.0, 1.0
582,0.0228,0.132,3.45,0.132,3.45,0.05573082075502963,0.0,-0.9984458300869261,0.0,1.0,0.0,1.0,1.0,1.0, 1.0
583,0.0228,0.132,3.45,0.132,3.45,0.05524434551359697,0.0,-0.9984728650738457,0.0,1.0,0.0,1.0,1.0,1.0, 1.0
584,0.0228,0.132,3.45,0.132,3.45,0.05512783786609316,0.0,-0.9984793044886858,0.0,1.0,0.0,1.0,1.0,1.0, 1.0
585,0.0228,0.132,3.45,0.132,3.45,0.05545583288970327,0.0,-0.9984611412561378,0.0,1.0,0.0,1.0,1.0,1.0, 1.0
586,0.0228,0.132,3.45,0.132,3.45,0.056410944098443994,0.0,-0.9984076348796228,0.0,1.0,0.0,1.0,1.0,1.0, 1.0
587,0.0228,0.132,3.45,0.132,3.45,0.05848641954746251,0.0,-0.9982882042419002,0.0,1.0,0.0,1.0,1.0,1.0, 1.0
588,0.0228,0.132,3.45,0.132,3.45,0.06279499656203745,0.0,-0.998026446747166,0.0,1.0,0.0,1.0,1.0,1.0, 1.0
589,0.0228,0.132,3.45,0.132,3.45,-0.0630311134494284,0.0,-0.9980115624266712,0.0,1.0,0.0,1.0,1.0,1.0, 1.0
590,0.0228,0.132,3.45,0.132,3.45,-0.18718423362774606,0.0,-0.9823248254427827,0.0,1.0,0.0,1.0,1.0,1.0, 1.0
591,0.0228,0.132,3.45,0.132,3.45,-0.30678364456774604,0.0,-0.9517792787331161,0.0,1.0,0.0,1.0,1.0,1.0, 1.0
592,0.0228,0.132,3.45,0.132,3.45,-0.4192161250702997,0.0,-0.9078864689381833,0.0,1.0,0.0,1.0,1.0,1.0, 1.0
593,0.0228,0.132,3.45,0.132,3.45,-0.5212738957490191,0.0,-0.8533894337350568,0.0,1.0,0.0,1.0,1.0,1.0, 1.0
594,0.0228,0.132,3.45,0.132,3.45,-0.6091438456852071,0.0,-0.7930597551659249,0.0,1.0,0.0,1.0,1.0,1.0, 1.0
595,0.0228,0.132,3.45,0.132,3.45,-0.6782840189729248,0.0,-0.7347998296175202,0.0,1.0,0.0,1.0,1.0,1.0, 1.0
596,0.0228,0.132,3.45,0.132,3.45,-0.05831376590907031,0.0,-0.9982983044689108,0.0,1.0,0.0,1.0,1.0,1.0, 1.0
597,0.0228,0.132,3.45,0.132,3.45,-0.17433072983540968,0.0,-0.9846871567330678,0.0,1.0,0.0,1.0,1.0,1.0, 1.0
598,0.0228,0.132,3.45,0.132,3.45,-0.2880410230085347,0.0,-0.9576180705605951,0.0,1.0,0.0,1.0,1.0,1.0, 1.0
599,0.0228,0.132,3.45,0.132,3.45,-0.39726706580199966,0.0,-0.9177030447966649,0.0,1.0,0.0,1.0,1.0,1.0, 1.0
600,0.0228,0.132,3.45,0.132,3.45,-0.49920913698010316,0.0,-0.8664815275328035,0.0,1.0,0.0,1.0,1.0,1.0, 1.0
601,0.0228,0.132,3.45,0.132,3.45,-0.5910388908392662,0.0,-0.8066430620265012,0.0,1.0,0.0,1.0,1.0,1.0, 1.0
602,0.0228,0.132,3.45,0.132,3.45,-0.6710164194512731,0.0,-0.7414424892240754,0.0,1.0,0.0,1.0,1.0,1.0, 1.0
603,0.0228,0.132,3.45,0.132,3.45,-0.05615976287383219,0.0,-0.9984217951517058,0.0,1.0,0.0,1.0,1.0,1.0, 1.0
604,0.0228,0.132,3.45,0.132,3.45,-0.16855993621176665,0.0,-0.9856914060213191,0.0,1.0,0.0,1.0,1.0,1.0, 1.0
605,0.0228,0.132,3.45,0.132,3.45,-0.27965896782147,0.0,-0.9600994019980588,0.0,1.0,0.0,1.0,1.0,1.0, 1.0
606,0.0228,0.132,3.45,0.132,3.45,-0.3874981919296186,0.0,-0.9218704633793602,0.0,1.0,0.0,1.0,1.0,1.0, 1.0
607,0.0228,0.132,3.45,0.132,3.45,-0.48954474836524625,0.0,-0.8719781759585545,0.0,1.0,0.0,1.0,1.0,1.0, 1.0
608,0.0228,0.132,3.45,0.132,3.45,-0.5835275601530499,0.0,-0.8120933361023404,0.0,1.0,0.0,1.0,1.0,1.0, 1.0
609,0.0228,0.132,3.45,0.132,3.45,-0.6681867730615725,0.0,-0.7439935727582346,0.0,1.0,0.0,1.0,1.0,1.0, 1.0
610,0.0228,0.132,3.45,0.132,3.45,-0.055284723555672766,0.0,-0.9984706301846704,0.0,1.0,0.0,1.0,1.0,1.0, 1.0
611,0.0228,0.132,3.45,0.132,3.45,-0.16621108351901356,0.0,-0.9860901965415919,0.0,1.0,0.0,1.0,1.0,1.0, 1.0
612,0.0228,0.132,3.45,0.132,3.45,-0.276190322817835,0.0,-0.9611029630491106,0.0,1.0,0.0,1.0,1.0,1.0, 1.0
613,0.0228,0.132,3.45,0.132,3.45,-0.3833912198345399,0.0,-0.9235860396052896,0.0,1.0,0.0,1.0,1.0,1.0, 1.0
614,0.0228,0.132,3.45,0.132,3.45,-0.48552147173632154,0.0,-0.874224742547931,0.0,1.0,0.0,1.0,1.0,1.0, 1.0
615,0.0228,0.132,3.45,0.132,3.45,-0.5804923339545777,0.0,-0.8142657122954196,0.0,1.0,0.0,1.0,1.0,1.0, 1.0
616,0.0228,0.132,3.45,0.132,3.45,-0.6670683260581409,0.0,-0.7449965425221715,0.0,1.0,0.0,1.0,1.0,1.0, 1.0
617,0.0228,0.132,3.45,0.132,3.45,-0.05504954805008914,0.0,-0.9984836239315499,0.0,1.0,0.0,1.0,1.0,1.0, 1.0
618,0.0228,0.132,3.45,0.132,3.45,-0.1655079704067632,0.0,-0.9862084524743407,0.0,1.0,0.0,1.0,1.0,1.0, 1.0
619,0.0228,0.132,3.45,0.132,3.45,-0.27498227028464545,0.0,-0.961449297170216,0.0,1.0,0.0,1.0,1.0,1.0, 1.0
620,0.0228,0.132,3.45,0.132,3.45,-0.38174813716795936,0.0,-0.9242663900460694,0.0,1.0,0.0,1.0,1.0,1.0, 1.0
621,0.0228,0.132,3.45,0.132,3.45,-0.4837701027233562,0.0,-0.8751951140808737,0.0,1.0,0.0,1.0,1.0,1.0, 1.0
622,0.0228,0.132,3.45,0.132,3.45,-0.5791545114537301,0.0,-0.8152177941279197,0.0,1.0,0.0,1.0,1.0,1.0, 1.0
623,0.0228,0.132,3.45,0.132,3.45,-0.6665896159018561,0.0,-0.7454249016311544,0.0,1.0,0.0,1.0,1.0,1.0, 1.0
624,0.0228,0.132,3.45,0.132,3.45,-0.05521787894367164,0.0,-0.998474329086613,0.0,1.0,0.0,1.0,1.0,1.0, 1.0
625,0.0228,0.132,3.45,0.132,3.45,-0.1658152127879343,0.0,-0.9861568410795983,0.0,1.0,0.0,1.0,1.0,1.0, 1.0
626,0.0228,0.132,3.45,0.132,3.45,-0.2751126780696245,0.0,-0.9614119899217811,0.0,1.0,0.0,1.0,1.0,1.0, 1.0
627,0.0228,0.132,3.45,0.132,3.45,-0.38150702804949194,0.0,-0.9243659381158763,0.0,1.0,0.0,1.0,1.0,1.0, 1.0
628,0.0228,0.132,3.45,0.132,3.45,-0.48322993163885075,0.0,-0.8754934797977147,0.0,1.0,0.0,1.0,1.0,1.0, 1.0
629,0.0228,0.132,3.45,0.132,3.45,-0.5786199108338349,0.0,-0.8155973263729136,0.0,1.0,0.0,1.0,1.0,1.0, 1.0
630,0.0228,0.132,3.45,0.132,3.45,-0.6663796728112761,0.0,-0.7456125881876838,0.0,1.0,0.0,1.0,1.0,1.0, 1.0
631,0.0228,0.132,3.45,0.132,3.45,-0.05572577700384339,0.0,-0.9984461116040855,0.0,1.0,0.0,1.0,1.0,1.0, 1.0
632,0.0228,0.132,3.45,0.132,3.45,-0.16683734035796083,0.0,-0.9859844328701555,0.0,1.0,0.0,1.0,1.0,1.0, 1.0
633,0.0228,0.132,3.45,0.132,3.45,-0.2761383975232907,0.0,-0.9611178832033399,0.0,1.0,0.0,1.0,1.0,1.0, 1.0
634,0.0228,0.132,3.45,0.132,3.45,-0.38217204471096833,0.0,-0.9240911904360076,0.0,1.0,0.0,1.0,1.0,1.0, 1.0
635,0.0228,0.132,3.45,0.132,3.45,-0.48346040509658683,0.0,-0.8753662300453703,0.0,1.0,0.0,1.0,1.0,1.0, 1.0
636,0.0228,0.132,3.45,0.132,3.45,-0.5785924539022164,0.0,-0.8156168048093488,0.0,1.0,0.0,1.0,1.0,1.0, 1.0
637,0.0228,0.132,3.45,0.132,3.45,-0.6663359396695383,0.0,-0.7456516716971225,0.0,1.0,0.0,1.0,1.0,1.0, 1.0
638,0.0228,0.132,3.45,0.132,3.45,-0.06305708343993609,0.0,-0.9980099219086196,0.0,1.0,0.0,1.0,1.0,1.0, 1.0
639,0.0228,0.132,3.45,0.132,3.45,-0.1872686995735249,0.0,-0.9823087265010123,0.0,1.0,0.0,1.0,1.0,1.0, 1.0
640,0.0228,0.132,3.45,0.132,3.45,-0.30702499084448875,0.0,-0.9517014526609391,0.0,1.0,0.0,1.0,1.0,1.0, 1.0
641,0.0228,0.132,3.45,0.132,3.45,-0.4196231093025173,0.0,-0.9076984334784807,0.0,1.0,0.0,1.0,1.0,1.0, 1.0
642,0.0228,0.132,3.45,0.132,3.45,-0.5217307275729118,0.0,-0.8531102202565857,0.0,1.0,0.0,1.0,1.0,1.0, 1.0
643,0.0228,0.132,3.45,0.132,3.45,-0.6094816041055757,0.0,-0.7928002108078015,0.0,1.0,0.0,1.0,1.0,1.0, 1.0
644,0.0228,0.132,3.45,0.132,3.45,-0.678400892906441,0.0,-0.734691927615748,0.0,1.0,0.0,1.0,1.0,1.0, 1.0
645,0.0228,0.132,3.45,0.132,3.45,-0.05855472567477027,0.0,-0.9982842000658692,0.0,1.0,0.0,1.0,1.0,1.0, 1.0
646,0.0228,0.132,3.45,0.132,3.45,-0.1749080647378256,0.0,-0.9845847697835207,0.0,1.0,0.0,1.0,1.0,1.0, 1.0
647,0.0228,0.132,3.45,0.132,3.45,-0.28886001517994525,0.0,-0.957371344688278,0.0,1.0,0.0,1.0,1.0,1.0, 1.0
648,0.0228,0.132,3.45,0.132,3.45,-0.3981867719347252,0.0,-0.9173043631511861,0.0,1.0,0.0,1.0,1.0,1.0, 1.0
649,0.0228,0.132,3.45,0.132,3.45,-0.5000386328500379,0.0,-0.8660030979491153,0.0,1.0,0.0,1.0,1.0,1.0, 1.0
650,0.0228,0.132,3.45,0.132,3.45,-0.5915955588654241,0.0,-0.8062348880634642,0.0,1.0,0.0,1.0,1.0,1.0, 1.0
651,0.0228,0.132,3.45,0.132,3.45,-0.6712034877763798,0.0,-0.7412731466853651,0.0,1.0,0.0,1.0,1.0,1.0, 1.0
652,0.0228,0.132,3.45,0.132,3.45,-0.05642476814410527,0.0,-0.9984068537123951,0.0,1.0,0.0,1.0,1.0,1.0, 1.0
653,0.0228,0.132,3.45,0.132,3.45,-0.1691655249253035,0.0,-0.9855876547404329,0.0,1.0,0.0,1.0,1.0,1.0, 1.0
654,0.0228,0.132,3.45,0.132,3.45,-0.2804836954401804,0.0,-0.9598587899228823,0.0,1.0,0.0,1.0,1.0,1.0, 1.0
655,0.0228,0.132,3.45,0.132,3.45,-0.38839907797296647,0.0,-0.9214912675819287,0.0,1.0,0.0,1.0,1.0,1.0, 1.0
656,0.0228,0.132,3.45,0.132,3.45,-0.4903397197951259,0.0,-0.8715313873815661,0.0,1.0,0.0,1.0,1.0,1.0, 1.0
657,0.0228,0.132,3.45,0.132,3.45,-0.5840557840806914,0.0,-0.8117135215591083,0.0,1.0,0.0,1.0,1.0,1.0, 1.0
658,0.0228,0.132,3.45,0.132,3.45,-0.6683632854777186,0.0,-0.7438350076632786,0.0,1.0,0.0,1.0,1.0,1.0, 1.0
659,0.0228,0.132,3.45,0.132,3.45,-0.055458214992709934,0.0,-0.9984610089481825,0.0,1.0,0.0,1.0,1.0,1.0, 1.0
660,0.0228,0.132,3.45,0.132,3.45,-0.16658229683049394,0.0,-0.9860275545757721,0.0,1.0,0.0,1.0,1.0,1.0, 1.0
661,0.0228,0.132,3.45,0.132,3.45,-0.2766925944710847,0.0,-0.9609584841005671,0.0,1.0,0.0,1.0,1.0,1.0, 1.0
662,0.0228,0.132,3.45,0.132,3.45,-0.3839523710311267,0.0,-0.9233528993724858,0.0,1.0,0.0,1.0,1.0,1.0, 1.0
663,0.0228,0.132,3.45,0.132,3.45,-0.4860310996679205,0.0,-0.8739415141504562,0.0,1.0,0.0,1.0,1.0,1.0, 1.0
664,0.0228,0.132,3.45,0.132,3.45,-0.5808340805045821,0.0,-0.8140219720157414,0.0,1.0,0.0,1.0,1.0,1.0, 1.0
665,0.0228,0.132,3.45,0.132,3.45,-0.667181725914356,0.0,-0.7448949889789442,0.0,1.0,0.0,1.0,1.0,1.0, 1.0
666,0.0228,0.132,3.45,0.132,3.45,-0.05512831497271989,0.0,-0.9984792781466567,0.0,1.0,0.0,1.0,1.0,1.0, 1.0
667,0.0228,0.132,3.45,0.132,3.45,-0.16564466975184422,0.0,-0.9861855015070959,0.0,1.0,0.0,1.0,1.0,1.0, 1.0
668,0.0228,0.132,3.45,0.132,3.45,-0.2751665389333201,0.0,-0.9613965757435678,0.0,1.0,0.0,1.0,1.0,1.0, 1.0
669,0.0228,0.132,3.45,0.132,3.45,-0.38196920945473267,0.0,-0.9241750499924387,0.0,1.0,0.0,1.0,1.0,1.0, 1.0
670,0.0228,0.132,3.45,0.132,3.45,-0.4839895161876488,0.0,-0.8750737958712087,0.0,1.0,0.0,1.0,1.0,1.0, 1.0
671,0.0228,0.132,3.45,0.132,3.45,-0.579307327456934,0.0,-0.8151092076247848,0.0,1.0,0.0,1.0,1.0,1.0, 1.0
672,0.0228,0.132,3.45,0.132,3.45,-0.6666385167360761,0.0,-0.7453811696064803,0.0,1.0,0.0,1.0,1.0,1.0, 1.0
673,0.0228,0.132,3.45,0.132,3.45,-0.05524434551359697,0.0,-0.9984728650738458,0.0,1.0,0.0,1.0,1.0,1.0, 1.0
674,0.0228,0.132,3.45,0.132,3.45,-0.16582778986330848,0.0,-0.9861547262519459,0.0,1.0,0.0,1.0,1.0,1.0, 1.0
675,0.0228,0.132,3.45,0.132,3.45,-0.2751274486414371,0.0,-0.9614077631286599,0.0,1.0,0.0,1.0,1.0,1.0, 1.0
676,0.0228,0.132,3.45,0.132,3.45,-0.38154009636541836,0.0,-0.9243522893710315,0.0,1.0,0.0,1.0,1.0,1.0, 1.0
677,0.0228,0.132,3.45,0.132,3.45,-0.4832752308553464,0.0,-0.8754684752986321,0.0,1.0,0.0,1.0,1.0,1.0, 1.0
678,0.0228,0.132,3.45,0.132,3.45,-0.578657363857997,0.0,-0.8155707542898493,0.0,1.0,0.0,1.0,1.0,1.0, 1.0
679,0.0228,0.132,3.45,0.132,3.45,-0.6663918906432198,0.0,-0.7456016685100396,0.0,1.0,0.0,1.0,1.0,1.0, 1.0
680,0.0228,0.132,3.45,0.132,3.45,-0.05573082075502961,0.0,-0.998445830086926,0.0,1.0,0.0,1.0,1.0,1.0, 1.0
681,0.0228,0.132,3.45,0.132,3.45,-0.16682647649008617,0.0,-0.9859862710717137,0.0,1.0,0.0,1.0,1.0,1.0, 1.0
682,0.0228,0.132,3.45,0.132,3.45,-0.27612307591851143,0.0,-0.9611222851153228,0.0,1.0,0.0,1.0,1.0,1.0, 1.0
683,0.0228,0.132,3.45,0.132,3.45,-0.3821657229016355,0.0,-0.9240938048916195,0.0,1.0,0.0,1.0,1.0,1.0, 1.0
684,0.0228,0.132,3.45,0.132,3.45,-0.48345766556252295,0.0,-0.8753677430707827,0.0,1.0,0.0,1.0,1.0,1.0, 1.0
685,0.0228,0.132,3.45,0.132,3.45,-0.5785911147336076,0.0,-0.8156177548038795,0.0,1.0,0.0,1.0,1.0,1.0, 1.0
686,0.0228,0.132,3.45,0.132,3.45,-0.6663367991357867,0.0,-0.7456509036522884,0.0,1.0,0.0,1.0,1.0,1.0, 1.0
687,0.0228,0.132,3.45,0.132,3.45,-0.9974564991125938,0.0,-0.07127785334904618,0.0,1.0,0.0,1.0,1.0,1.0, 1.0
688,0.0228,0.132,3.45,0.132,3.45,-0.9777112998907985,0.0,-0.20995383794025996,0.0,1.0,0.0,1.0,1.0,1.0, 1.0
689,0.0228,0.132,3.45,0.132,3.45,-0.9403088803937838,0.0,-0.3403222141626798,0.0,1.0,0.0,1.0,1.0,1.0, 1.0
690,0.0228,0.132,3.45,0.132,3.45,-0.8884560975967567,0.0,-0.4589616134745286,0.0,1.0,0.0,1.0,1.0,1.0, 1.0
691,0.0228,0.132,3.45,0.132,3.45,-0.8268444117730549,0.0,-0.5624307234848314,0.0,1.0,0.0,1.0,1.0,1.0, 1.0
692,0.0228,0.132,3.45,0.132,3.45,-0.7626095779965114,0.0,-0.6468590507583416,0.0,1.0,0.0,1.0,1.0,1.0, 1.0
693,0.0228,0.132,3.45,0.132,3.45,-0.7072561129396805,0.0,-0.7069574178898288,0.0,1.0,0.0,1.0,1.0,1.0, 1.0
694,0.0228,0.132,3.45,0.132,3.45,-0.9963583511194094,0.0,-0.08526450700386087,0.0,1.0,0.0,1.0,1.0,1.0, 1.0
695,0.0228,0.132,3.45,0.132,3.45,-0.9687357542808596,0.0,-0.2480948173136518,0.0,1.0,0.0,1.0,1.0,1.0, 1.0
696,0.0228,0.132,3.45,0.132,3.45,-0.9187201968766205,0.0,-0.3949091032769233,0.0,1.0,0.0,1.0,1.0,1.0, 1.0
697,0.0228,0.132,3.45,0.132,3.45,-0.8532451069405909,0.0,-0.5215101029528957,0.0,1.0,0.0,1.0,1.0,1.0, 1.0
698,0.0228,0.132,3.45,0.132,3.45,-0.7799867922931168,0.0,-0.6257959762161261,0.0,1.0,0.0,1.0,1.0,1.0, 1.0
699,0.0228,0.132,3.45,0.132,3.45,-0.7077909430560203,0.0,-0.7064219567141647,0.0,1.0,0.0,1.0,1.0,1.0, 1.0
700,0.0228,0.132,3.45,0.132,3.45,-0.6475256662537393,0.0,-0.7620436414947973,0.0,1.0,0.0,1.0,1.0,1.0, 1.0
701,0.0228,0.132,3.45,0.132,3.45,-0.9943161132056944,0.0,-0.10646815025875518,0.0,1.0,0.0,1.0,1.0,1.0, 1.0
702,0.0228,0.132,3.45,0.132,3.45,-0.9526142906150264,0.0,-0.30418088913676006,0.0,1.0,0.0,1.0,1.0,1.0, 1.0
703,0.0228,0.132,3.45,0.132,3.45,-0.8820292662295897,0.0,-0.4711946238174747,0.0,1.0,0.0,1.0,1.0,1.0, 1.0
704,0.0228,0.132,3.45,0.132,3.45,-0.7969832055005155,0.0,-0.6040014653542847,0.0,1.0,0.0,1.0,1.0,1.0, 1.0
705,0.0228,0.132,3.45,0.132,3.45,-0.7092523953304478,0.0,-0.7049546366384309,0.0,1.0,0.0,1.0,1.0,1.0, 1.0
706,0.0228,0.132,3.45,0.132,3.45,-0.6284544842139262,0.0,-0.7778463609681592,0.0,1.0,0.0,1.0,1.0,1.0, 1.0
707,0.0228,0.132,3.45,0.132,3.45,-0.5636953384987287,0.0,-0.8259827875656996,0.0,1.0,0.0,1.0,1.0,1.0, 1.0
708,0.0228,0.132,3.45,0.132,3.45,-0.99026369526219,0.0,-0.13920421633583,0.0,1.0,0.0,1.0,1.0,1.0, 1.0
709,0.0228,0.132,3.45,0.132,3.45,-0.9227971733921184,0.0,-0.3852860973088914,0.0,1.0,0.0,1.0,1.0,1.0, 1.0
710,0.0228,0.132,3.45,0.132,3.45,-0.8204827283990549,0.0,-0.571671315004385,0.0,1.0,0.0,1.0,1.0,1.0, 1.0
711,0.0228,0.132,3.45,0.132,3.45,-0.7116032215184075,0.0,-0.7025815647486235,0.0,1.0,0.0,1.0,1.0,1.0, 1.0
712,0.0228,0.132,3.45,0.132,3.45,-0.6109774573849978,0.0,-0.7916479941030377,0.0,1.0,0.0,1.0,1.0,1.0, 1.0
713,0.0228,0.132,3.45,0.132,3.45,-0.5256539608981121,0.0,-0.8506984855941182,0.0,1.0,0.0,1.0,1.0,1.0, 1.0
714,0.0228,0.132,3.45,0.132,3.45,-0.46088677215933876,0.0,-0.8874589473595641,0.0,1.0,0.0,1.0,1.0,1.0, 1.0
715,0.0228,0.132,3.45,0.132,3.45,-0.9806842780319446,0.0,-0.1955974100568914,0.0,1.0,0.0,1.0,1.0,1.0, 1.0
716,0.0228,0.132,3.45,0.132,3.45,-0.8611825173773527,0.0,-0.5082958506259965,0.0,1.0,0.0,1.0,1.0,1.0, 1.0
717,0.0228,0.132,3.45,0.132,3.45,-0.7133350350308987,0.0,-0.7008231786959294,0.0,1.0,0.0,1.0,1.0,1.0, 1.0
718,0.0228,0.132,3.45,0.132,3.45,-0.5837638087025061,0.0,-0.8119235282027143,0.0,1.0,0.0,1.0,1.0,1.0, 1.0
719,0.0228,0.132,3.45,0.132,3.45,-0.47994106293504285,0.0,-0.8773007329922741,0.0,1.0,0.0,1.0,1.0,1.0, 1.0
720,0.0228,0.132,3.45,0.132,3.45,-0.39994567889569055,0.0,-0.9165388447483636,0.0,1.0,0.0,1.0,1.0,1.0, 1.0
721,0.0228,0.132,3.45,0.132,3.45,-0.34261020677363285,0.0,-0.9394776454043643,0.0,1.0,0.0,1.0,1.0,1.0, 1.0
722,0.0228,0.132,3.45,0.132,3.45,-0.9484921125903437,0.0,-0.3168007455071827,0.0,1.0,0.0,1.0,1.0,1.0, 1.0
723,0.0228,0.132,3.45,0.132,3.45,-0.7125408772993564,0.0,-0.7016305995162008,0.0,1.0,0.0,1.0,1.0,1.0, 1.0
724,0.0228,0.132,3.45,0.132,3.45,-0.5215907570631488,0.0,-0.8531958052793573,0.0,1.0,0.0,1.0,1.0,1.0, 1.0
725,0.0228,0.132,3.45,0.132,3.45,-0.3966171799117055,0.0,-0.9179841025850534,0.0,1.0,0.0,1.0,1.0,1.0, 1.0
726,0.0228,0.132,3.45,0.132,3.45,-0.3119123678685256,0.0,-0.9501108749880982,0.0,1.0,0.0,1.0,1.0,1.0, 1.0
727,0.0228,0.132,3.45,0.132,3.45,-0.2524147962829263,0.0,-0.9676191247683401,0.0,1.0,0.0,1.0,1.0,1.0, 1.0
728,0.0228,0.132,3.45,0.132,3.45,-0.21189786179718678,0.0,-0.9772918173021711,0.0,1.0,0.0,1.0,1.0,1.0, 1.0
729,0.0228,0.132,3.45,0.132,3.45,-0.7090580799711086,0.0,-0.7051500827679773,0.0,1.0,0.0,1.0,1.0,1.0, 1.0
730,0.0228,0.132,3.45,0.132,3.45,-0.3235673390561978,0.0,-0.9462051453549022,0.0,1.0,0.0,1.0,1.0,1.0, 1.0
731,0.0228,0.132,3.45,0.132,3.45,-0.20163008987098147,0.0,-0.9794617434380068,0.0,1.0,0.0,1.0,1.0,1.0, 1.0
732,0.0228,0.132,3.45,0.132,3.45,-0.14379844865110913,0.0,-0.9896069958147701,0.0,1.0,0.0,1.0,1.0,1.0, 1.0
733,0.0228,0.132,3.45,0.132,3.45,-0.10960010601257424,0.0,-0.9939757626632716,0.0,1.0,0.0,1.0,1.0,1.0, 1.0
734,0.0228,0.132,3.45,0.132,3.45,-0.08696847069631308,0.0,-0.9962110645363985,0.0,1.0,0.0,1.0,1.0,1.0, 1.0
735,0.0228,0.132,3.45,0.132,3.45,-0.07204601827035476,0.0,-0.9974013090283106,0.0,1.0,0.0,1.0,1.0,1.0, 1.0
736,0.0228,0.132,3.45,0.132,3.45,-0.9974813255378315,0.0,-0.07092957918450256,0.0,1.0,0.0,1.0,1.0,1.0, 1.0
737,0.0228,0.132,3.45,0.132,3.45,-0.9778802064793627,0.0,-0.20916572801460326,0.0,1.0,0.0,1.0,1.0,1.0, 1.0
738,0.0228,0.132,3.45,0.132,3.45,-0.9405669831596053,0.0,-0.3396082304509696,0.0,1.0,0.0,1.0,1.0,1.0, 1.0
739,0.0228,0.132,3.45,0.132,3.45,-0.8886256798979897,0.0,-0.458633187880942,0.0,1.0,0.0,1.0,1.0,1.0, 1.0
740,0.0228,0.132,3.45,0.132,3.45,-0.8268317366374718,0.0,-0.5624493570883182,0.0,1.0,0.0,1.0,1.0,1.0, 1.0
741,0.0228,0.132,3.45,0.132,3.45,-0.7625030425777113,0.0,-0.6469846289207597,0.0,1.0,0.0,1.0,1.0,1.0, 1.0
742,0.0228,0.132,3.45,0.132,3.45,-0.7072266137117235,0.0,-0.7069869283500572,0.0,1.0,0.0,1.0,1.0,1.0, 1.0
743,0.0228,0.132,3.45,0.132,3.45,-0.9964281125259213,0.0,-0.08444534663337004,0.0,1.0,0.0,1.0,1.0,1.0, 1.0
744,0.0228,0.132,3.45,0.132,3.45,-0.969205193274781,0.0,-0.24625452956076657,0.0,1.0,0.0,1.0,1.0,1.0, 1.0
745,0.0228,0.132,3.45,0.132,3.45,-0.91946439495623,0.0,-0.39317327784041217,0.0,1.0,0.0,1.0,1.0,1.0, 1.0
746,0.0228,0.132,3.45,0.132,3.45,-0.8538328739704314,0.0,-0.5205472344825139,0.0,1.0,0.0,1.0,1.0,1.0, 1.0
747,0.0228,0.132,3.45,0.132,3.45,-0.7801716777674342,0.0,-0.625565466765507,0.0,1.0,0.0,1.0,1.0,1.0, 1.0
748,0.0228,0.132,3.45,0.132,3.45,-0.7077301102836201,0.0,-0.7064829021271039,0.0,1.0,0.0,1.0,1.0,1.0, 1.0
749,0.0228,0.132,3.45,0.132,3.45,-0.6475599817729605,0.0,-0.7620144814937596,0.0,1.0,0.0,1.0,1.0,1.0, 1.0
750,0.0228,0.132,3.45,0.132,3.45,-0.9944485368318421,0.0,-0.10522408276154485,0.0,1.0,0.0,1.0,1.0,1.0, 1.0
751,0.0228,0.132,3.45,0.132,3.45,-0.9534464576788331,0.0,-0.3015623523248304,0.0,1.0,0.0,1.0,1.0,1.0, 1.0
752,0.0228,0.132,3.45,0.132,3.45,-0.8831858619546699,0.0,-0.46902316919677534,0.0,1.0,0.0,1.0,1.0,1.0, 1.0
753,0.0228,0.132,3.45,0.132,3.45,-0.7976798531381651,0.0,-0.6030811321020374,0.0,1.0,0.0,1.0,1.0,1.0, 1.0
754,0.0228,0.132,3.45,0.132,3.45,-0.7092407704716185,0.0,-0.7049663321753918,0.0,1.0,0.0,1.0,1.0,1.0, 1.0
755,0.0228,0.132,3.45,0.132,3.45,-0.6281132151613865,0.0,-0.7781219627665229,0.0,1.0,0.0,1.0,1.0,1.0, 1.0
756,0.0228,0.132,3.45,0.132,3.45,-0.5636053875984068,0.0,-0.8260441677477358,0.0,1.0,0.0,1.0,1.0,1.0, 1.0
757,0.0228,0.132,3.45,0.132,3.45,-0.990487649246293,0.0,-0.13760165947601322,0.0,1.0,0.0,1.0,1.0,1.0, 1.0
758,0.0228,0.132,3.45,0.132,3.45,-0.9238774205687761,0.0,-0.38268853100554856,0.0,1.0,0.0,1.0,1.0,1.0, 1.0
759,0.0228,0.132,3.45,0.132,3.45,-0.8215280482761096,0.0,-0.5701681031903187,0.0,1.0,0.0,1.0,1.0,1.0, 1.0
760,0.0228,0.132,3.45,0.132,3.45,-0.7116403183618686,0.0,-0.7025439895706305,0.0,1.0,0.0,1.0,1.0,1.0, 1.0
761,0.0228,0.132,3.45,0.132,3.45,-0.6100750334032213,0.0,-0.7923436461650073,0.0,1.0,0.0,1.0,1.0,1.0, 1.0
762,0.0228,0.132,3.45,0.132,3.45,-0.5246591166388216,0.0,-0.8513124052471991,0.0,1.0,0.0,1.0,1.0,1.0, 1.0
763,0.0228,0.132,3.45,0.132,3.45,-0.46047370167473617,0.0,-0.8876733464884288,0.0,1.0,0.0,1.0,1.0,1.0, 1.0
764,0.0228,0.132,3.45,0.132,3.45,-0.9810598628763098,0.0,-0.19370478944289538,0.0,1.0,0.0,1.0,1.0,1.0, 1.0
765,0.0228,0.132,3.45,0.132,3.45,-0.8621660239143083,0.0,-0.5066258453807823,0.0,1.0,0.0,1.0,1.0,1.0, 1.0
766,0.0228,0.132,3.45,0.132,3.45,-0.7131958858175363,0.0,-0.7009647840319367,0.0,1.0,0.0,1.0,1.0,1.0, 1.0
767,0.0228,0.132,3.45,0.132,3.45,-0.5821825908239316,0.0,-0.81305807353567,0.0,1.0,0.0,1.0,1.0,1.0, 1.0
768,0.0228,0.132,3.45,0.132,3.45,-0.47779010445689685,0.0,-0.8784740269826238,0.0,1.0,0.0,1.0,1.0,1.0, 1.0
769,0.0228,0.132,3.45,0.132,3.45,-0.3981674667197463,0.0,-0.9173127429868069,0.0,1.0,0.0,1.0,1.0,1.0, 1.0
770,0.0228,0.132,3.45,0.132,3.45,-0.3418548325680846,0.0,-0.9397527725151158,0.0,1.0,0.0,1.0,1.0,1.0, 1.0
771,0.0228,0.132,3.45,0.132,3.45,-0.9491777360143383,0.0,-0.31474056849204374,0.0,1.0,0.0,1.0,1.0,1.0, 1.0
772,0.0228,0.132,3.45,0.132,3.45,-0.7122372737375776,0.0,-0.7019387907067559,0.0,1.0,0.0,1.0,1.0,1.0, 1.0
773,0.0228,0.132,3.45,0.132,3.45,-0.5193856574309669,0.0,-0.8545399574361648,0.0,1.0,0.0,1.0,1.0,1.0, 1.0
774,0.0228,0.132,3.45,0.132,3.45,-0.39365750800974164,0.0,-0.919257181852587,0.0,1.0,0.0,1.0,1.0,1.0, 1.0
775,0.0228,0.132,3.45,0.132,3.45,-0.3091587375412967,0.0,-0.9510104494703892,0.0,1.0,0.0,1.0,1.0,1.0, 1.0
776,0.0228,0.132,3.45,0.132,3.45,-0.2505058255234667,0.0,-0.9681150920106589,0.0,1.0,0.0,1.0,1.0,1.0, 1.0
777,0.0228,0.132,3.45,0.132,3.45,-0.2110675110185568,0.0,-0.977471485922956,0.0,1.0,0.0,1.0,1.0,1.0, 1.0
778,0.0228,0.132,3.45,0.132,3.45,-0.709077740285755,0.0,-0.7051303129431095,0.0,1.0,0.0,1.0,1.0,1.0, 1.0
779,0.0228,0.132,3.45,0.132,3.45,-0.3207617953338976,0.0,-0.9471598970892797,0.0,1.0,0.0,1.0,1.0,1.0, 1.0
780,0.0228,0.132,3.45,0.132,3.45,-0.19927931877340818,0.0,-0.9799427295047433,0.0,1.0,0.0,1.0,1.0,1.0, 1.0
781,0.0228,0.132,3.45,0.132,3.45,-0.14198058496584393,0.0,-0.9898694426502703,0.0,1.0,0.0,1.0,1.0,1.0, 1.0
782,0.0228,0.132,3.45,0.132,3.45,-0.10817070649288654,0.0,-0.9941323343784919,0.0,1.0,0.0,1.0,1.0,1.0, 1.0
783,0.0228,0.132,3.45,0.132,3.45,-0.08613515289425108,0.0,-0.9962834613883159,0.0,1.0,0.0,1.0,1.0,1.0, 1.0
784,0.0228,0.132,3.45,0.132,3.45,-0.07166624596263778,0.0,-0.9974286687225421,0.0,1.0,0.0,1.0,1.0,1.0, 1.0
785,0.0228,0.132,3.45,0.132,3.45,-0.7456516716971225,0.0,-0.6663359396695383,0.0,1.0,0.0,1.0,1.0,1.0, 1.0
786,0.0228,0.132,3.45,0.132,3.45,-0.7456125881876837,0.0,-0.6663796728112762,0.0,1.0,0.0,1.0,1.0,1.0, 1.0
787,0.0228,0.132,3.45,0.132,3.45,-0.7454278184382701,0.0,-0.6665863541195256,0.0,1.0,0.0,1.0,1.0,1.0, 1.0
788,0.0228,0.132,3.45,0.132,3.45,-0.744999434363816,0.0,-0.6670650963718565,0.0,1.0,0.0,1.0,1.0,1.0, 1.0
789,0.0228,0.132,3.45,0.132,3.45,-0.7440045302639723,0.0,-0.6681745722090043,0.0,1.0,0.0,1.0,1.0,1.0, 1.0
790,0.0228,0.132,3.45,0.132,3.45,-0.7414840913263281,0.0,-0.6709704481644252,0.0,1.0,0.0,1.0,1.0,1.0, 1.0
791,0.0228,0.132,3.45,0.132,3.45,-0.7349186622861253,0.0,-0.6781552623283049,0.0,1.0,0.0,1.0,1.0,1.0, 1.0
792,0.0228,0.132,3.45,0.132,3.45,-0.8156168048093488,0.0,-0.5785924539022165,0.0,1.0,0.0,1.0,1.0,1.0, 1.0
793,0.0228,0.132,3.45,0.132,3.45,-0.8155973263729136,0.0,-0.578619910833835,0.0,1.0,0.0,1.0,1.0,1.0, 1.0
794,0.0228,0.132,3.45,0.132,3.45,-0.8152205634522888,0.0,-0.5791506133334684,0.0,1.0,0.0,1.0,1.0,1.0, 1.0
795,0.0228,0.132,3.45,0.132,3.45,-0.8142684619119258,0.0,-0.580488477005002,0.0,1.0,0.0,1.0,1.0,1.0, 1.0
796,0.0228,0.132,3.45,0.132,3.45,-0.8121055544970157,0.0,-0.583510555478729,0.0,1.0,0.0,1.0,1.0,1.0, 1.0
797,0.0228,0.132,3.45,0.132,3.45,-0.8067005148474682,0.0,-0.5909604718970888,0.0,1.0,0.0,1.0,1.0,1.0, 1.0
798,0.0228,0.132,3.45,0.132,3.45,-0.7932507999502885,0.0,-0.608895038884558,0.0,1.0,0.0,1.0,1.0,1.0, 1.0
799,0.0228,0.132,3.45,0.132,3.45,-0.8753662300453703,0.0,-0.48346040509658683,0.0,1.0,0.0,1.0,1.0,1.0, 1.0
800,0.0228,0.132,3.45,0.132,3.45,-0.8754934797977147,0.0,-0.4832299316388508,0.0,1.0,0.0,1.0,1.0,1.0, 1.0
801,0.0228,0.132,3.45,0.132,3.45,-0.8751951140808736,0.0,-0.48377010272335613,0.0,1.0,0.0,1.0,1.0,1.0, 1.0
802,0.0228,0.132,3.45,0.132,3.45,-0.8742272107092613,0.0,-0.4855170275649504,0.0,1.0,0.0,1.0,1.0,1.0, 1.0
803,0.0228,0.132,3.45,0.132,3.45,-0.8719943807127664,0.0,-0.48951588330243057,0.0,1.0,0.0,1.0,1.0,1.0, 1.0
804,0.0228,0.132,3.45,0.132,3.45,-0.8665571153798552,0.0,-0.49907791554480174,0.0,1.0,0.0,1.0,1.0,1.0, 1.0
805,0.0228,0.132,3.45,0.132,3.45,-0.8536710738017961,0.0,-0.5208125360953677,0.0,1.0,0.0,1.0,1.0,1.0, 1.0
806,0.0228,0.132,3.45,0.132,3.45,-0.9240911904360076,0.0,-0.38217204471096833,0.0,1.0,0.0,1.0,1.0,1.0, 1.0
807,0.0228,0.132,3.45,0.132,3.45,-0.9243659381158763,0.0,-0.3815070280494921,0.0,1.0,0.0,1.0,1.0,1.0, 1.0
808,0.0228,0.132,3.45,0.132,3.45,-0.9242668029231281,0.0,-0.38174713753250245,0.0,1.0,0.0,1.0,1.0,1.0, 1.0
809,0.0228,0.132,3.45,0.132,3.45,-0.9235908051707938,0.0,-0.383379739428109,0.0,1.0,0.0,1.0,1.0,1.0, 1.0
810,0.0228,0.132,3.45,0.132,3.45,-0.9218891734245018,0.0,-0.38745367713145856,0.0,1.0,0.0,1.0,1.0,1.0, 1.0
811,0.0228,0.132,3.45,0.132,3.45,-0.9177863726599864,0.0,-0.3970745196554729,0.0,1.0,0.0,1.0,1.0,1.0, 1.0
812,0.0228,0.132,3.45,0.132,3.45,-0.9082074781271128,0.0,-0.41852022253887555,0.0,1.0,0.0,1.0,1.0,1.0, 1.0
813,0.0228,0.132,3.45,0.132,3.45,-0.9611178832033399,0.0,-0.2761383975232908,0.0,1.0,0.0,1.0,1.0,1.0, 1.0
814,0.0228,0.132,3.45,0.132,3.45,-0.9614121467244457,0.0,-0.2751121301046049,0.0,1.0,0.0,1.0,1.0,1.0, 1.0
815,0.0228,0.132,3.45,0.132,3.45,-0.9614500695679596,0.0,-0.27497956965521214,0.0,1.0,0.0,1.0,1.0,1.0, 1.0
816,0.0228,0.132,3.45,0.132,3.45,-0.961106626768479,0.0,-0.2761775732779827,0.0,1.0,0.0,1.0,1.0,1.0, 1.0
817,0.0228,0.132,3.45,0.132,3.45,-0.9601140856804684,0.0,-0.2796085522260687,0.0,1.0,0.0,1.0,1.0,1.0, 1.0
818,0.0228,0.132,3.45,0.132,3.45,-0.9576844672306718,0.0,-0.2878201890505674,0.0,1.0,0.0,1.0,1.0,1.0, 1.0
819,0.0228,0.132,3.45,0.132,3.45,-0.9520409638852778,0.0,-0.3059705918620141,0.0,1.0,0.0,1.0,1.0,1.0, 1.0
820,0.0228,0.132,3.45,0.132,3.45,-0.9859844328701554,0.0,-0.16683734035796083,0.0,1.0,0.0,1.0,1.0,1.0, 1.0
821,0.0228,0.132,3.45,0.132,3.45,-0.9861569378445637,0.0,-0.1658146372942796,0.0,1.0,0.0,1.0,1.0,1.0, 1.0
822,0.0228,0.132,3.45,0.132,3.45,-0.986208833286689,0.0,-0.16550570125318245,0.0,1.0,0.0,1.0,1.0,1.0, 1.0
823,0.0228,0.132,3.45,0.132,3.45,-0.9860916897179319,0.0,-0.16620222462179532,0.0,1.0,0.0,1.0,1.0,1.0, 1.0
824,0.0228,0.132,3.45,0.132,3.45,-0.9856981601863137,0.0,-0.1685204349784211,0.0,1.0,0.0,1.0,1.0,1.0, 1.0
825,0.0228,0.132,3.45,0.132,3.45,-0.9847196072695952,0.0,-0.17414733721425135,0.0,1.0,0.0,1.0,1.0,1.0, 1.0
826,0.0228,0.132,3.45,0.132,3.45,-0.9824551570512375,0.0,-0.1864989661725448,0.0,1.0,0.0,1.0,1.0,1.0, 1.0
827,0.0228,0.132,3.45,0.132,3.45,-0.9984461116040855,0.0,-0.05572577700384339,0.0,1.0,0.0,1.0,1.0,1.0, 1.0
828,0.0228,0.132,3.45,0.132,3.45,-0.998474329086613,0.0,-0.05521787894367164,0.0,1.0,0.0,1.0,1.0,1.0, 1.0
829,0.0228,0.132,3.45,0.132,3.45,-0.9984836558635206,0.0,-0.055048968867893976,0.0,1.0,0.0,1.0,1.0,1.0, 1.0
830,0.0228,0.132,3.45,0.132,3.45,-0.9984707899919116,0.0,-0.05528183727887257,0.0,1.0,0.0,1.0,1.0,1.0, 1.0
831,0.0228,0.132,3.45,0.132,3.45,-0.9984226482310173,0.0,-0.05614459456939885,0.0,1.0,0.0,1.0,1.0,1.0, 1.0
832,0.0228,0.132,3.45,0.132,3.45,-0.9983025472611843,0.0,-0.05824108628649648,0.0,1.0,0.0,1.0,1.0,1.0, 1.0
833,0.0228,0.132,3.45,0.132,3.45,-0.9980286478053765,0.0,-0.06276000445962218,0.0,1.0,0.0,1.0,1.0,1.0, 1.0
834,0.0228,0.132,3.45,0.132,3.45,-0.7456509036522884,0.0,-0.6663367991357867,0.0,1.0,0.0,1.0,1.0,1.0, 1.0
835,0.0228,0.132,3.45,0.132,3.45,-0.7456016685100396,0.0,-0.6663918906432198,0.0,1.0,0.0,1.0,1.0,1.0, 1.0
836,0.0228,0.132,3.45,0.132,3.45,-0.7453835701988781,0.0,-0.6666358325784583,0.0,1.0,0.0,1.0,1.0,1.0, 1.0
837,0.0228,0.132,3.45,0.132,3.45,-0.7448973692334234,0.0,-0.6671790683985259,0.0,1.0,0.0,1.0,1.0,1.0, 1.0
838,0.0228,0.132,3.45,0.132,3.45,-0.7438440452507864,0.0,-0.6683532272271496,0.0,1.0,0.0,1.0,1.0,1.0, 1.0
839,0.0228,0.132,3.45,0.132,3.45,-0.7413121766968453,0.0,-0.6711603807444129,0.0,1.0,0.0,1.0,1.0,1.0, 1.0
840,0.0228,0.132,3.45,0.132,3.45,-0.7347884013659757,0.0,-0.6782963992371137,0.0,1.0,0.0,1.0,1.0,1.0, 1.0
841,0.0228,0.132,3.45,0.132,3.45,-0.8156177548038794,0.0,-0.5785911147336078,0.0,1.0,0.0,1.0,1.0,1.0, 1.0
842,0.0228,0.132,3.45,0.132,3.45,-0.8155707542898493,0.0,-0.5786573638579969,0.0,1.0,0.0,1.0,1.0,1.0, 1.0
843,0.0228,0.132,3.45,0.132,3.45,-0.8151114870031357,0.0,-0.5793041202645955,0.0,1.0,0.0,1.0,1.0,1.0, 1.0
844,0.0228,0.132,3.45,0.132,3.45,-0.8140242360506044,0.0,-0.5808309075128749,0.0,1.0,0.0,1.0,1.0,1.0, 1.0
845,0.0228,0.132,3.45,0.132,3.45,-0.81172133751991,0.0,-0.5840449214015033,0.0,1.0,0.0,1.0,1.0,1.0, 1.0
846,0.0228,0.132,3.45,0.132,3.45,-0.806277922634759,0.0,-0.5915369062634872,0.0,1.0,0.0,1.0,1.0,1.0, 1.0
847,0.0228,0.132,3.45,0.132,3.45,-0.7929572255104804,0.0,-0.6092773083832362,0.0,1.0,0.0,1.0,1.0,1.0, 1.0
848,0.0228,0.132,3.45,0.132,3.45,-0.8753677430707827,0.0,-0.48345766556252284,0.0,1.0,0.0,1.0,1.0,1.0, 1.0
849,0.0228,0.132,3.45,0.132,3.45,-0.8754684752986321,0.0,-0.4832752308553463,0.0,1.0,0.0,1.0,1.0,1.0, 1.0
850,0.0228,0.132,3.45,0.132,3.45,-0.8750737958712086,0.0,-0.48398951618764896,0.0,1.0,0.0,1.0,1.0,1.0, 1.0
851,0.0228,0.132,3.45,0.132,3.45,-0.8739435478165424,0.0,-0.48602744287728733,0.0,1.0,0.0,1.0,1.0,1.0, 1.0
852,0.0228,0.132,3.45,0.132,3.45,-0.8715419120544533,0.0,-0.4903210127380506,0.0,1.0,0.0,1.0,1.0,1.0, 1.0
853,0.0228,0.132,3.45,0.132,3.45,-0.8660621507841151,0.0,-0.4999363469274792,0.0,1.0,0.0,1.0,1.0,1.0, 1.0
854,0.0228,0.132,3.45,0.132,3.45,-0.8533550697432317,0.0,-0.5213301496590468,0.0,1.0,0.0,1.0,1.0,1.0, 1.0
855,0.0228,0.132,3.45,0.132,3.45,-0.9240938048916195,0.0,-0.3821657229016355,0.0,1.0,0.0,1.0,1.0,1.0, 1.0
856,0.0228,0.132,3.45,0.132,3.45,-0.9243522893710315,0.0,-0.3815400963654184,0.0,1.0,0.0,1.0,1.0,1.0, 1.0
857,0.0228,0.132,3.45,0.132,3.45,-0.924175389943868,0.0,-0.38196838694072516,0.0,1.0,0.0,1.0,1.0,1.0, 1.0
858,0.0228,0.132,3.45,0.132,3.45,-0.9233568305054497,0.0,-0.3839429170579008,0.0,1.0,0.0,1.0,1.0,1.0, 1.0
859,0.0228,0.132,3.45,0.132,3.45,-0.9215062522058516,0.0,-0.38836352447870975,0.0,1.0,0.0,1.0,1.0,1.0, 1.0
860,0.0228,0.132,3.45,0.132,3.45,-0.9173763536625769,0.0,-0.3980208860609639,0.0,1.0,0.0,1.0,1.0,1.0, 1.0
861,0.0228,0.132,3.45,0.132,3.45,-0.907990954049942,0.0,-0.4189897699985957,0.0,1.0,0.0,1.0,1.0,1.0, 1.0
862,0.0228,0.132,3.45,0.132,3.45,-0.9611222851153228,0.0,-0.27612307591851143,0.0,1.0,0.0,1.0,1.0,1.0, 1.0
863,0.0228,0.132,3.45,0.132,3.45,-0.9614078923022538,0.0,-0.2751269972556999,0.0,1.0,0.0,1.0,1.0,1.0, 1.0
864,0.0228,0.132,3.45,0.132,3.45,-0.9613972118509517,0.0,-0.2751643164460395,0.0,1.0,0.0,1.0,1.0,1.0, 1.0
865,0.0228,0.132,3.45,0.132,3.45,-0.9609615095323896,0.0,-0.27668208687450513,0.0,1.0,0.0,1.0,1.0,1.0, 1.0
866,0.0228,0.132,3.45,0.132,3.45,-0.9598717499115494,0.0,-0.28043934053862696,0.0,1.0,0.0,1.0,1.0,1.0, 1.0
867,0.0228,0.132,3.45,0.132,3.45,-0.9574314885219465,0.0,-0.2886606048400956,0.0,1.0,0.0,1.0,1.0,1.0, 1.0
868,0.0228,0.132,3.45,0.132,3.45,-0.9519487592129293,0.0,-0.30625734249641157,0.0,1.0,0.0,1.0,1.0,1.0, 1.0
869,0.0228,0.132,3.45,0.132,3.45,-0.9859862710717137,0.0,-0.16682647649008617,0.0,1.0,0.0,1.0,1.0,1.0, 1.0
870,0.0228,0.132,3.45,0.132,3.45,-0.9861548059732841,0.0,-0.1658273157709377,0.0,1.0,0.0,1.0,1.0,1.0, 1.0
871,0.0228,0.132,3.45,0.132,3.45,-0.9861858152524526,0.0,-0.16564280182022814,0.0,1.0,0.0,1.0,1.0,1.0, 1.0
872,0.0228,0.132,3.45,0.132,3.45,-0.9860287886592186,0.0,-0.16657499192626163,0.0,1.0,0.0,1.0,1.0,1.0, 1.0
873,0.0228,0.132,3.45,0.132,3.45,-0.9855938713920944,0.0,-0.16912930164327997,0.0,1.0,0.0,1.0,1.0,1.0, 1.0
874,0.0228,0.132,3.45,0.132,3.45,-0.9846152298458314,0.0,-0.17473651351575265,0.0,1.0,0.0,1.0,1.0,1.0, 1.0
875,0.0228,0.132,3.45,0.132,3.45,-0.9824343006477616,0.0,-0.1866088018040513,0.0,1.0,0.0,1.0,1.0,1.0, 1.0
876,0.0228,0.132,3.45,0.132,3.45,-0.9984458300869261,0.0,-0.05573082075502963,0.0,1.0,0.0,1.0,1.0,1.0, 1.0
877,0.0228,0.132,3.45,0.132,3.45,-0.9984728650738457,0.0,-0.05524434551359697,0.0,1.0,0.0,1.0,1.0,1.0, 1.0
878,0.0228,0.132,3.45,0.132,3.45,-0.9984793044886858,0.0,-0.05512783786609316,0.0,1.0,0.0,1.0,1.0,1.0, 1.0
879,0.0228,0.132,3.45,0.132,3.45,-0.9984611412561378,0.0,-0.05545583288970327,0.0,1.0,0.0,1.0,1.0,1.0, 1.0
880,0.0228,0.132,3.45,0.132,3.45,-0.9984076348796228,0.0,-0.056410944098443994,0.0,1.0,0.0,1.0,1.0,1.0, 1.0
881,0.0228,0.132,3.45,0.132,3.45,-0.9982882042419002,0.0,-0.05848641954746251,0.0,1.0,0.0,1.0,1.0,1.0, 1.0
882,0.0228,0.132,3.45,0.132,3.45,-0.998026446747166,0.0,-0.06279499656203745,0.0,1.0,0.0,1.0,1.0,1.0, 1.0
883,0.0228,0.132,3.45,0.132,3.45,-0.9980286478053765,0.0,0.06276000445962217,0.0,1.0,-0.0,1.0,1.0,1.0, 1.0
884,0.0228,0.132,3.45,0.132,3.45,-0.9824551570512375,0.0,0.1864989661725448,0.0,1.0,-0.0,1.0,1.0,1.0, 1.0
885,0.0228,0.132,3.45,0.132,3.45,-0.9520409638852778,0.0,0.3059705918620139,0.0,1.0,-0.0,1.0,1.0,1.0, 1.0
886,0.0228,0.132,3.45,0.132,3.45,-0.9082074781271128,0.0,0.41852022253887555,0.0,1.0,-0.0,1.0,1.0,1.0, 1.0
887,0.0228,0.132,3.45,0.132,3.45,-0.8536710738017961,0.0,0.5208125360953677,0.0,1.0,-0.0,1.0,1.0,1.0, 1.0
888,0.0228,0.132,3.45,0.132,3.45,-0.7932507999502885,0.0,0.608895038884558,0.0,1.0,-0.0,1.0,1.0,1.0, 1.0
889,0.0228,0.132,3.45,0.132,3.45,-0.7349186622861253,0.0,0.6781552623283049,0.0,1.0,-0.0,1.0,1.0,1.0, 1.0
890,0.0228,0.132,3.45,0.132,3.45,-0.9983025472611843,0.0,0.05824108628649648,0.0,1.0,-0.0,1.0,1.0,1.0, 1.0
891,0.0228,0.132,3.45,0.132,3.45,-0.9847196072695952,0.0,0.17414733721425138,0.0,1.0,-0.0,1.0,1.0,1.0, 1.0
892,0.0228,0.132,3.45,0.132,3.45,-0.9576844672306718,0.0,0.2878201890505674,0.0,1.0,-0.0,1.0,1.0,1.0, 1.0
893,0.0228,0.132,3.45,0.132,3.45,-0.9177863726599864,0.0,0.39707451965547286,0.0,1.0,-0.0,1.0,1.0,1.0, 1.0
894,0.0228,0.132,3.45,0.132,3.45,-0.8665571153798552,0.0,0.49907791554480174,0.0,1.0,-0.0,1.0,1.0,1.0, 1.0
895,0.0228,0.132,3.45,0.132,3.45,-0.8067005148474682,0.0,0.5909604718970887,0.0,1.0,-0.0,1.0,1.0,1.0, 1.0
896,0.0228,0.132,3.45,0.132,3.45,-0.7414840913263282,0.0,0.6709704481644252,0.0,1.0,-0.0,1.0,1.0,1.0, 1.0
897,0.0228,0.132,3.45,0.132,3.45,-0.9984226482310173,0.0,0.05614459456939885,0.0,1.0,-0.0,1.0,1.0,1.0, 1.0
898,0.0228,0.132,3.45,0.132,3.45,-0.9856981601863137,0.0,0.1685204349784211,0.0,1.0,-0.0,1.0,1.0,1.0, 1.0
899,0.0228,0.132,3.45,0.132,3.45,-0.9601140856804684,0.0,0.2796085522260685,0.0,1.0,-0.0,1.0,1.0,1.0, 1.0
900,0.0228,0.132,3.45,0.132,3.45,-0.9218891734245018,0.0,0.38745367713145856,0.0,1.0,-0.0,1.0,1.0,1.0, 1.0
901,0.0228,0.132,3.45,0.132,3.45,-0.8719943807127664,0.0,0.4895158833024307,0.0,1.0,-0.0,1.0,1.0,1.0, 1.0
902,0.0228,0.132,3.45,0.132,3.45,-0.8121055544970157,0.0,0.5835105554787289,0.0,1.0,-0.0,1.0,1.0,1.0, 1.0
903,0.0228,0.132,3.45,0.132,3.45,-0.7440045302639723,0.0,0.6681745722090043,0.0,1.0,-0.0,1.0,1.0,1.0, 1.0
904,0.0228,0.132,3.45,0.132,3.45,-0.9984707899919116,0.0,0.05528183727887257,0.0,1.0,-0.0,1.0,1.0,1.0, 1.0
905,0.0228,0.132,3.45,0.132,3.45,-0.9860916897179319,0.0,0.16620222462179532,0.0,1.0,-0.0,1.0,1.0,1.0, 1.0
906,0.0228,0.132,3.45,0.132,3.45,-0.961106626768479,0.0,0.27617757327798265,0.0,1.0,-0.0,1.0,1.0,1.0, 1.0
907,0.0228,0.132,3.45,0.132,3.45,-0.9235908051707938,0.0,0.383379739428109,0.0,1.0,-0.0,1.0,1.0,1.0, 1.0
908,0.0228,0.132,3.45,0.132,3.45,-0.8742272107092615,0.0,0.4855170275649503,0.0,1.0,-0.0,1.0,1.0,1.0, 1.0
909,0.0228,0.132,3.45,0.132,3.45,-0.8142684619119258,0.0,0.580488477005002,0.0,1.0,-0.0,1.0,1.0,1.0, 1.0
910,0.0228,0.132,3.45,0.132,3.45,-0.744999434363816,0.0,0.6670650963718565,0.0,1.0,-0.0,1.0,1.0,1.0, 1.0
911,0.0228,0.132,3.45,0.132,3.45,-0.9984836558635206,0.0,0.055048968867893976,0.0,1.0,-0.0,1.0,1.0,1.0, 1.0
912,0.0228,0.132,3.45,0.132,3.45,-0.986208833286689,0.0,0.16550570125318242,0.0,1.0,-0.0,1.0,1.0,1.0, 1.0
913,0.0228,0.132,3.45,0.132,3.45,-0.9614500695679596,0.0,0.27497956965521214,0.0,1.0,-0.0,1.0,1.0,1.0, 1.0
914,0.0228,0.132,3.45,0.132,3.45,-0.9242668029231282,0.0,0.38174713753250233,0.0,1.0,-0.0,1.0,1.0,1.0, 1.0
915,0.0228,0.132,3.45,0.132,3.45,-0.8751951140808737,0.0,0.4837701027233562,0.0,1.0,-0.0,1.0,1.0,1.0, 1.0
916,0.0228,0.132,3.45,0.132,3.45,-0.815220563452289,0.0,0.5791506133334685,0.0,1.0,-0.0,1.0,1.0,1.0, 1.0
917,0.0228,0.132,3.45,0.132,3.45,-0.74542781843827,0.0,0.6665863541195256,0.0,1.0,-0.0,1.0,1.0,1.0, 1.0
918,0.0228,0.132,3.45,0.132,3.45,-0.998474329086613,0.0,0.05521787894367164,0.0,1.0,-0.0,1.0,1.0,1.0, 1.0
919,0.0228,0.132,3.45,0.132,3.45,-0.9861569378445637,0.0,0.1658146372942796,0.0,1.0,-0.0,1.0,1.0,1.0, 1.0
920,0.0228,0.132,3.45,0.132,3.45,-0.9614121467244456,0.0,0.2751121301046049,0.0,1.0,-0.0,1.0,1.0,1.0, 1.0
921,0.0228,0.132,3.45,0.132,3.45,-0.9243659381158763,0.0,0.38150702804949194,0.0,1.0,-0.0,1.0,1.0,1.0, 1.0
922,0.0228,0.132,3.45,0.132,3.45,-0.8754934797977147,0.0,0.48322993163885075,0.0,1.0,-0.0,1.0,1.0,1.0, 1.0
923,0.0228,0.132,3.45,0.132,3.45,-0.8155973263729136,0.0,0.5786199108338349,0.0,1.0,-0.0,1.0,1.0,1.0, 1.0
924,0.0228,0.132,3.45,0.132,3.45,-0.7456125881876838,0.0,0.6663796728112761,0.0,1.0,-0.0,1.0,1.0,1.0, 1.0
925,0.0228,0.132,3.45,0.132,3.45,-0.9984461116040855,0.0,0.05572577700384339,0.0,1.0,-0.0,1.0,1.0,1.0, 1.0
926,0.0228,0.132,3.45,0.132,3.45,-0.9859844328701555,0.0,0.16683734035796083,0.0,1.0,-0.0,1.0,1.0,1.0, 1.0
927,0.0228,0.132,3.45,0.132,3.45,-0.9611178832033399,0.0,0.2761383975232907,0.0,1.0,-0.0,1.0,1.0,1.0, 1.0
928,0.0228,0.132,3.45,0.132,3.45,-0.9240911904360076,0.0,0.38217204471096833,0.0,1.0,-0.0,1.0,1.0,1.0, 1.0
929,0.0228,0.132,3.45,0.132,3.45,-0.8753662300453703,0.0,0.48346040509658683,0.0,1.0,-0.0,1.0,1.0,1.0, 1.0
930,0.0228,0.132,3.45,0.132,3.45,-0.8156168048093488,0.0,0.5785924539022164,0.0,1.0,-0.0,1.0,1.0,1.0, 1.0
931,0.0228,0.132,3.45,0.132,3.45,-0.7456516716971225,0.0,0.6663359396695383,0.0,1.0,-0.0,1.0,1.0,1.0, 1.0
932,0.0228,0.132,3.45,0.132,3.45,-0.998026446747166,0.0,0.06279499656203745,0.0,1.0,-0.0,1.0,1.0,1.0, 1.0
933,0.0228,0.132,3.45,0.132,3.45,-0.9824343006477616,0.0,0.18660880180405115,0.0,1.0,-0.0,1.0,1.0,1.0, 1.0
934,0.0228,0.132,3.45,0.132,3.45,-0.9519487592129293,0.0,0.30625734249641157,0.0,1.0,-0.0,1.0,1.0,1.0, 1.0
935,0.0228,0.132,3.45,0.132,3.45,-0.907990954049942,0.0,0.4189897699985958,0.0,1.0,-0.0,1.0,1.0,1.0, 1.0
936,0.0228,0.132,3.45,0.132,3.45,-0.8533550697432316,0.0,0.5213301496590469,0.0,1.0,-0.0,1.0,1.0,1.0, 1.0
937,0.0228,0.132,3.45,0.132,3.45,-0.7929572255104803,0.0,0.6092773083832362,0.0,1.0,-0.0,1.0,1.0,1.0, 1.0
938,0.0228,0.132,3.45,0.132,3.45,-0.7347884013659756,0.0,0.6782963992371138,0.0,1.0,-0.0,1.0,1.0,1.0, 1.0
939,0.0228,0.132,3.45,0.132,3.45,-0.9982882042419002,0.0,0.05848641954746251,0.0,1.0,-0.0,1.0,1.0,1.0, 1.0
940,0.0228,0.132,3.45,0.132,3.45,-0.9846152298458314,0.0,0.17473651351575265,0.0,1.0,-0.0,1.0,1.0,1.0, 1.0
941,0.0228,0.132,3.45,0.132,3.45,-0.9574314885219465,0.0,0.2886606048400956,0.0,1.0,-0.0,1.0,1.0,1.0, 1.0
942,0.0228,0.132,3.45,0.132,3.45,-0.9173763536625767,0.0,0.3980208860609639,0.0,1.0,-0.0,1.0,1.0,1.0, 1.0
943,0.0228,0.132,3.45,0.132,3.45,-0.8660621507841151,0.0,0.4999363469274792,0.0,1.0,-0.0,1.0,1.0,1.0, 1.0
944,0.0228,0.132,3.45,0.132,3.45,-0.8062779226347591,0.0,0.5915369062634871,0.0,1.0,-0.0,1.0,1.0,1.0, 1.0
945,0.0228,0.132,3.45,0.132,3.45,-0.7413121766968452,0.0,0.671160380744413,0.0,1.0,-0.0,1.0,1.0,1.0, 1.0
946,0.0228,0.132,3.45,0.132,3.45,-0.9984076348796228,0.0,0.056410944098443994,0.0,1.0,-0.0,1.0,1.0,1.0, 1.0
947,0.0228,0.132,3.45,0.132,3.45,-0.9855938713920944,0.0,0.16912930164328,0.0,1.0,-0.0,1.0,1.0,1.0, 1.0
948,0.0228,0.132,3.45,0.132,3.45,-0.9598717499115493,0.0,0.2804393405386271,0.0,1.0,-0.0,1.0,1.0,1.0, 1.0
949,0.0228,0.132,3.45,0.132,3.45,-0.9215062522058517,0.0,0.3883635244787097,0.0,1.0,-0.0,1.0,1.0,1.0, 1.0
950,0.0228,0.132,3.45,0.132,3.45,-0.8715419120544532,0.0,0.4903210127380508,0.0,1.0,-0.0,1.0,1.0,1.0, 1.0
951,0.0228,0.132,3.45,0.132,3.45,-0.81172133751991,0.0,0.5840449214015033,0.0,1.0,-0.0,1.0,1.0,1.0, 1.0
952,0.0228,0.132,3.45,0.132,3.45,-0.7438440452507863,0.0,0.6683532272271498,0.0,1.0,-0.0,1.0,1.0,1.0, 1.0
953,0.0228,0.132,3.45,0.132,3.45,-0.9984611412561378,0.0,0.05545583288970327,0.0,1.0,-0.0,1.0,1.0,1.0, 1.0
954,0.0228,0.132,3.45,0.132,3.45,-0.9860287886592186,0.0,0.16657499192626163,0.0,1.0,-0.0,1.0,1.0,1.0, 1.0
955,0.0228,0.132,3.45,0.132,3.45,-0.9609615095323896,0.0,0.276682086874505,0.0,1.0,-0.0,1.0,1.0,1.0, 1.0
956,0.0228,0.132,3.45,0.132,3.45,-0.9233568305054498,0.0,0.38394291705790073,0.0,1.0,-0.0,1.0,1.0,1.0, 1.0
957,0.0228,0.132,3.45,0.132,3.45,-0.8739435478165425,0.0,0.4860274428772872,0.0,1.0,-0.0,1.0,1.0,1.0, 1.0
958,0.0228,0.132,3.45,0.132,3.45,-0.8140242360506044,0.0,0.5808309075128749,0.0,1.0,-0.0,1.0,1.0,1.0, 1.0
959,0.0228,0.132,3.45,0.132,3.45,-0.7448973692334233,0.0,0.667179068398526,0.0,1.0,-0.0,1.0,1.0,1.0, 1.0
960,0.0228,0.132,3.45,0.132,3.45,-0.9984793044886858,0.0,0.055127837866093155,0.0,1.0,-0.0,1.0,1.0,1.0, 1.0
961,0.0228,0.132,3.45,0.132,3.45,-0.9861858152524526,0.0,0.1656428018202281,0.0,1.0,-0.0,1.0,1.0,1.0, 1.0
962,0.0228,0.132,3.45,0.132,3.45,-0.9613972118509517,0.0,0.2751643164460395,0.0,1.0,-0.0,1.0,1.0,1.0, 1.0
963,0.0228,0.132,3.45,0.132,3.45,-0.924175389943868,0.0,0.38196838694072527,0.0,1.0,-0.0,1.0,1.0,1.0, 1.0
964,0.0228,0.132,3.45,0.132,3.45,-0.8750737958712087,0.0,0.4839895161876488,0.0,1.0,-0.0,1.0,1.0,1.0, 1.0
965,0.0228,0.132,3.45,0.132,3.45,-0.8151114870031357,0.0,0.5793041202645953,0.0,1.0,-0.0,1.0,1.0,1.0, 1.0
966,0.0228,0.132,3.45,0.132,3.45,-0.7453835701988781,0.0,0.6666358325784583,0.0,1.0,-0.0,1.0,1.0,1.0, 1.0
967,0.0228,0.132,3.45,0.132,3.45,-0.9984728650738458,0.0,0.05524434551359697,0.0,1.0,-0.0,1.0,1.0,1.0, 1.0
968,0.0228,0.132,3.45,0.132,3.45,-0.9861548059732841,0.0,0.16582731577093773,0.0,1.0,-0.0,1.0,1.0,1.0, 1.0
969,0.0228,0.132,3.45,0.132,3.45,-0.9614078923022538,0.0,0.27512699725569995,0.0,1.0,-0.0,1.0,1.0,1.0, 1.0
970,0.0228,0.132,3.45,0.132,3.45,-0.9243522893710315,0.0,0.38154009636541836,0.0,1.0,-0.0,1.0,1.0,1.0, 1.0
971,0.0228,0.132,3.45,0.132,3.45,-0.8754684752986321,0.0,0.4832752308553464,0.0,1.0,-0.0,1.0,1.0,1.0, 1.0
972,0.0228,0.132,3.45,0.132,3.45,-0.8155707542898493,0.0,0.578657363857997,0.0,1.0,-0.0,1.0,1.0,1.0, 1.0
973,0.0228,0.132,3.45,0.132,3.45,-0.7456016685100396,0.0,0.6663918906432198,0.0,1.0,-0.0,1.0,1.0,1.0, 1.0
974,0.0228,0.132,3.45,0.132,3.45,-0.998445830086926,0.0,0.05573082075502961,0.0,1.0,-0.0,1.0,1.0,1.0, 1.0
975,0.0228,0.132,3.45,0.132,3.45,-0.9859862710717137,0.0,0.16682647649008617,0.0,1.0,-0.0,1.0,1.0,1.0, 1.0
976,0.0228,0.132,3.45,0.132,3.45,-0.9611222851153228,0.0,0.27612307591851143,0.0,1.0,-0.0,1.0,1.0,1.0, 1.0
977,0.0228,0.132,3.45,0.132,3.45,-0.9240938048916195,0.0,0.3821657229016355,0.0,1.0,-0.0,1.0,1.0,1.0, 1.0
978,0.0228,0.132,3.45,0.132,3.45,-0.8753677430707827,0.0,0.48345766556252295,0.0,1.0,-0.0,1.0,1.0,1.0, 1.0
979,0.0228,0.132,3.45,0.132,3.45,-0.8156177548038795,0.0,0.5785911147336076,0.0,1.0,-0.0,1.0,1.0,1.0, 1.0
980,0.0228,0.132,3.45,0.132,3.45,-0.7456509036522884,0.0,0.6663367991357867,0.0,1.0,-0.0,1.0,1.0,1.0, 1.0
981,0.0228,0.132,3.45,0.132,3.45,-0.07204601827035476,0.0,0.9974013090283106,0.0,1.0,-0.0,1.0,1.0,1.0, 1.0
982,0.0228,0.132,3.45,0.132,3.45,-0.2118978617971869,0.0,0.9772918173021711,0.0,1.0,-0.0,1.0,1.0,1.0, 1.0
983,0.0228,0.132,3.45,0.132,3.45,-0.34261020677363296,0.0,0.9394776454043643,0.0,1.0,-0.0,1.0,1.0,1.0, 1.0
984,0.0228,0.132,3.45,0.132,3.45,-0.46088677215933876,0.0,0.8874589473595641,0.0,1.0,-0.0,1.0,1.0,1.0, 1.0
985,0.0228,0.132,3.45,0.132,3.45,-0.5636953384987288,0.0,0.8259827875656996,0.0,1.0,-0.0,1.0,1.0,1.0, 1.0
986,0.0228,0.132,3.45,0.132,3.45,-0.6475256662537393,0.0,0.7620436414947973,0.0,1.0,-0.0,1.0,1.0,1.0, 1.0
987,0.0228,0.132,3.45,0.132,3.45,-0.7072561129396804,0.0,0.7069574178898289,0.0,1.0,-0.0,1.0,1.0,1.0, 1.0
988,0.0228,0.132,3.45,0.132,3.45,-0.08696847069631297,0.0,0.9962110645363985,0.0,1.0,-0.0,1.0,1.0,1.0, 1.0
989,0.0228,0.132,3.45,0.132,3.45,-0.2524147962829263,0.0,0.9676191247683401,0.0,1.0,-0.0,1.0,1.0,1.0, 1.0
990,0.0228,0.132,3.45,0.132,3.45,-0.39994567889569044,0.0,0.9165388447483636,0.0,1.0,-0.0,1.0,1.0,1.0, 1.0
991,0.0228,0.132,3.45,0.132,3.45,-0.5256539608981121,0.0,0.8506984855941183,0.0,1.0,-0.0,1.0,1.0,1.0, 1.0
992,0.0228,0.132,3.45,0.132,3.45,-0.6284544842139262,0.0,0.7778463609681592,0.0,1.0,-0.0,1.0,1.0,1.0, 1.0
993,0.0228,0.132,3.45,0.132,3.45,-0.7077909430560202,0.0,0.7064219567141647,0.0,1.0,-0.0,1.0,1.0,1.0, 1.0
994,0.0228,0.132,3.45,0.132,3.45,-0.7626095779965114,0.0,0.6468590507583416,0.0,1.0,-0.0,1.0,1.0,1.0, 1.0
995,0.0228,0.132,3.45,0.132,3.45,-0.1096001060125741,0.0,0.9939757626632716,0.0,1.0,-0.0,1.0,1.0,1.0, 1.0
996,0.0228,0.132,3.45,0.132,3.45,-0.3119123678685256,0.0,0.9501108749880982,0.0,1.0,-0.0,1.0,1.0,1.0, 1.0
997,0.0228,0.132,3.45,0.132,3.45,-0.47994106293504296,0.0,0.877300732992274,0.0,1.0,-0.0,1.0,1.0,1.0, 1.0
998,0.0228,0.132,3.45,0.132,3.45,-0.6109774573849978,0.0,0.7916479941030377,0.0,1.0,-0.0,1.0,1.0,1.0, 1.0
999,0.0228,0.132,3.45,0.132,3.45,-0.7092523953304477,0.0,0.704954636638431,0.0,1.0,-0.0,1.0,1.0,1.0, 1.0
1000,0.0228,0.132,3.45,0.132,3.45,-0.7799867922931167,0.0,0.6257959762161261,0.0,1.0,-0.0,1.0,1.0,1.0, 1.0
1001,0.0228,0.132,3.45,0.132,3.45,-0.8268444117730549,0.0,0.5624307234848314,0.0,1.0,-0.0,1.0,1.0,1.0, 1.0
1002,0.0228,0.132,3.45,0.132,3.45,-0.14379844865110913,0.0,0.9896069958147701,0.0,1.0,-0.0,1.0,1.0,1.0, 1.0
1003,0.0228,0.132,3.45,0.132,3.45,-0.3966171799117054,0.0,0.9179841025850535,0.0,1.0,-0.0,1.0,1.0,1.0, 1.0
1004,0.0228,0.132,3.45,0.132,3.45,-0.5837638087025061,0.0,0.8119235282027144,0.0,1.0,-0.0,1.0,1.0,1.0, 1.0
1005,0.0228,0.132,3.45,0.132,3.45,-0.7116032215184073,0.0,0.7025815647486235,0.0,1.0,-0.0,1.0,1.0,1.0, 1.0
1006,0.0228,0.132,3.45,0.132,3.45,-0.7969832055005156,0.0,0.6040014653542846,0.0,1.0,-0.0,1.0,1.0,1.0, 1.0
1007,0.0228,0.132,3.45,0.132,3.45,-0.8532451069405907,0.0,0.5215101029528957,0.0,1.0,-0.0,1.0,1.0,1.0, 1.0
1008,0.0228,0.132,3.45,0.132,3.45,-0.8884560975967567,0.0,0.4589616134745286,0.0,1.0,-0.0,1.0,1.0,1.0, 1.0
1009,0.0228,0.132,3.45,0.132,3.45,-0.20163008987098147,0.0,0.9794617434380068,0.0,1.0,-0.0,1.0,1.0,1.0, 1.0
1010,0.0228,0.132,3.45,0.132,3.45,-0.5215907570631491,0.0,0.8531958052793573,0.0,1.0,-0.0,1.0,1.0,1.0, 1.0
1011,0.0228,0.132,3.45,0.132,3.45,-0.7133350350308987,0.0,0.7008231786959294,0.0,1.0,-0.0,1.0,1.0,1.0, 1.0
1012,0.0228,0.132,3.45,0.132,3.45,-0.820482728399055,0.0,0.5716713150043847,0.0,1.0,-0.0,1.0,1.0,1.0, 1.0
1013,0.0228,0.132,3.45,0.132,3.45,-0.8820292662295897,0.0,0.47119462381747473,0.0,1.0,-0.0,1.0,1.0,1.0, 1.0
1014,0.0228,0.132,3.45,0.132,3.45,-0.9187201968766205,0.0,0.3949091032769233,0.0,1.0,-0.0,1.0,1.0,1.0, 1.0
1015,0.0228,0.132,3.45,0.132,3.45,-0.9403088803937838,0.0,0.3403222141626798,0.0,1.0,-0.0,1.0,1.0,1.0, 1.0
1016,0.0228,0.132,3.45,0.132,3.45,-0.32356733905619783,0.0,0.9462051453549021,0.0,1.0,-0.0,1.0,1.0,1.0, 1.0
1017,0.0228,0.132,3.45,0.132,3.45,-0.7125408772993566,0.0,0.7016305995162007,0.0,1.0,-0.0,1.0,1.0,1.0, 1.0
1018,0.0228,0.132,3.45,0.132,3.45,-0.861182517377353,0.0,0.5082958506259966,0.0,1.0,-0.0,1.0,1.0,1.0, 1.0
1019,0.0228,0.132,3.45,0.132,3.45,-0.9227971733921184,0.0,0.38528609730889124,0.0,1.0,-0.0,1.0,1.0,1.0, 1.0
1020,0.0228,0.132,3.45,0.132,3.45,-0.9526142906150264,0.0,0.30418088913675995,0.0,1.0,-0.0,1.0,1.0,1.0, 1.0
1021,0.0228,0.132,3.45,0.132,3.45,-0.9687357542808596,0.0,0.2480948173136518,0.0,1.0,-0.0,1.0,1.0,1.0, 1.0
1022,0.0228,0.132,3.45,0.132,3.45,-0.9777112998907985,0.0,0.20995383794025996,0.0,1.0,-0.0,1.0,1.0,1.0, 1.0
1023,0.0228,0.132,3.45,0.132,3.45,-0.7090580799711086,0.0,0.7051500827679772,0.0,1.0,-0.0,1.0,1.0,1.0, 1.0
1024,0.0228,0.132,3.45,0.132,3.45,-0.9484921125903437,0.0,0.31680074550718257,0.0,1.0,-0.0,1.0,1.0,1.0, 1.0
1025,0.0228,0.132,3.45,0.132,3.45,-0.9806842780319446,0.0,0.1955974100568913,0.0,1.0,-0.0,1.0,1.0,1.0, 1.0
1026,0.0228,0.132,3.45,0.132,3.45,-0.99026369526219,0.0,0.13920421633583,0.0,1.0,-0.0,1.0,1.0,1.0, 1.0
1027,0.0228,0.132,3.45,0.132,3.45,-0.9943161132056944,0.0,0.10646815025875518,0.0,1.0,-0.0,1.0,1.0,1.0, 1.0
1028,0.0228,0.132,3.45,0.132,3.45,-0.9963583511194094,0.0,0.08526450700386076,0.0,1.0,-0.0,1.0,1.0,1.0, 1.0
1029,0.0228,0.132,3.45,0.132,3.45,-0.9974564991125938,0.0,0.07127785334904618,0.0,1.0,-0.0,1.0,1.0,1.0, 1.0
1030,0.0228,0.132,3.45,0.132,3.45,-0.07166624596263778,0.0,0.9974286687225421,0.0,1.0,-0.0,1.0,1.0,1.0, 1.0
1031,0.0228,0.132,3.45,0.132,3.45,-0.21106751101855684,0.0,0.977471485922956,0.0,1.0,-0.0,1.0,1.0,1.0, 1.0
1032,0.0228,0.132,3.45,0.132,3.45,-0.3418548325680846,0.0,0.9397527725151158,0.0,1.0,-0.0,1.0,1.0,1.0, 1.0
1033,0.0228,0.132,3.45,0.132,3.45,-0.4604737016747362,0.0,0.8876733464884288,0.0,1.0,-0.0,1.0,1.0,1.0, 1.0
1034,0.0228,0.132,3.45,0.132,3.45,-0.5636053875984068,0.0,0.8260441677477358,0.0,1.0,-0.0,1.0,1.0,1.0, 1.0
1035,0.0228,0.132,3.45,0.132,3.45,-0.6475599817729605,0.0,0.7620144814937596,0.0,1.0,-0.0,1.0,1.0,1.0, 1.0
1036,0.0228,0.132,3.45,0.132,3.45,-0.7072266137117235,0.0,0.706986928350057,0.0,1.0,-0.0,1.0,1.0,1.0, 1.0
1037,0.0228,0.132,3.45,0.132,3.45,-0.0861351528942511,0.0,0.9962834613883159,0.0,1.0,-0.0,1.0,1.0,1.0, 1.0
1038,0.0228,0.132,3.45,0.132,3.45,-0.2505058255234668,0.0,0.9681150920106589,0.0,1.0,-0.0,1.0,1.0,1.0, 1.0
1039,0.0228,0.132,3.45,0.132,3.45,-0.3981674667197464,0.0,0.9173127429868069,0.0,1.0,-0.0,1.0,1.0,1.0, 1.0
1040,0.0228,0.132,3.45,0.132,3.45,-0.5246591166388216,0.0,0.8513124052471993,0.0,1.0,-0.0,1.0,1.0,1.0, 1.0
1041,0.0228,0.132,3.45,0.132,3.45,-0.6281132151613865,0.0,0.7781219627665229,0.0,1.0,-0.0,1.0,1.0,1.0, 1.0
1042,0.0228,0.132,3.45,0.132,3.45,-0.7077301102836199,0.0,0.706482902127104,0.0,1.0,-0.0,1.0,1.0,1.0, 1.0
1043,0.0228,0.132,3.45,0.132,3.45,-0.7625030425777112,0.0,0.6469846289207598,0.0,1.0,-0.0,1.0,1.0,1.0, 1.0
1044,0.0228,0.132,3.45,0.132,3.45,-0.10817070649288665,0.0,0.9941323343784919,0.0,1.0,-0.0,1.0,1.0,1.0, 1.0
1045,0.0228,0.132,3.45,0.132,3.45,-0.30915873754129675,0.0,0.9510104494703892,0.0,1.0,-0.0,1.0,1.0,1.0, 1.0
1046,0.0228,0.132,3.45,0.132,3.45,-0.47779010445689696,0.0,0.8784740269826238,0.0,1.0,-0.0,1.0,1.0,1.0, 1.0
1047,0.0228,0.132,3.45,0.132,3.45,-0.6100750334032213,0.0,0.7923436461650073,0.0,1.0,-0.0,1.0,1.0,1.0, 1.0
1048,0.0228,0.132,3.45,0.132,3.45,-0.7092407704716186,0.0,0.7049663321753918,0.0,1.0,-0.0,1.0,1.0,1.0, 1.0
1049,0.0228,0.132,3.45,0.132,3.45,-0.7801716777674342,0.0,0.6255654667655072,0.0,1.0,-0.0,1.0,1.0,1.0, 1.0
1050,0.0228,0.132,3.45,0.132,3.45,-0.8268317366374717,0.0,0.5624493570883182,0.0,1.0,-0.0,1.0,1.0,1.0, 1.0
1051,0.0228,0.132,3.45,0.132,3.45,-0.14198058496584393,0.0,0.9898694426502703,0.0,1.0,-0.0,1.0,1.0,1.0, 1.0
1052,0.0228,0.132,3.45,0.132,3.45,-0.3936575080097415,0.0,0.9192571818525871,0.0,1.0,-0.0,1.0,1.0,1.0, 1.0
1053,0.0228,0.132,3.45,0.132,3.45,-0.5821825908239314,0.0,0.8130580735356698,0.0,1.0,-0.0,1.0,1.0,1.0, 1.0
1054,0.0228,0.132,3.45,0.132,3.45,-0.7116403183618686,0.0,0.7025439895706305,0.0,1.0,-0.0,1.0,1.0,1.0, 1.0
1055,0.0228,0.132,3.45,0.132,3.45,-0.7976798531381651,0.0,0.6030811321020374,0.0,1.0,-0.0,1.0,1.0,1.0, 1.0
1056,0.0228,0.132,3.45,0.132,3.45,-0.8538328739704314,0.0,0.5205472344825139,0.0,1.0,-0.0,1.0,1.0,1.0, 1.0
1057,0.0228,0.132,3.45,0.132,3.45,-0.8886256798979897,0.0,0.45863318788094204,0.0,1.0,-0.0,1.0,1.0,1.0, 1.0
1058,0.0228,0.132,3.45,0.132,3.45,-0.19927931877340813,0.0,0.9799427295047433,0.0,1.0,-0.0,1.0,1.0,1.0, 1.0
1059,0.0228,0.132,3.45,0.132,3.45,-0.5193856574309669,0.0,0.8545399574361648,0.0,1.0,-0.0,1.0,1.0,1.0, 1.0
1060,0.0228,0.132,3.45,0.132,3.45,-0.7131958858175365,0.0,0.7009647840319366,0.0,1.0,-0.0,1.0,1.0,1.0, 1.0
1061,0.0228,0.132,3.45,0.132,3.45,-0.8215280482761097,0.0,0.5701681031903186,0.0,1.0,-0.0,1.0,1.0,1.0, 1.0
1062,0.0228,0.132,3.45,0.132,3.45,-0.8831858619546699,0.0,0.46902316919677534,0.0,1.0,-0.0,1.0,1.0,1.0, 1.0
1063,0.0228,0.132,3.45,0.132,3.45,-0.91946439495623,0.0,0.39317327784041217,0.0,1.0,-0.0,1.0,1.0,1.0, 1.0
1064,0.0228,0.132,3.45,0.132,3.45,-0.9405669831596053,0.0,0.3396082304509696,0.0,1.0,-0.0,1.0,1.0,1.0, 1.0
1065,0.0228,0.132,3.45,0.132,3.45,-0.32076179533389765,0.0,0.9471598970892796,0.0,1.0,-0.0,1.0,1.0,1.0, 1.0
1066,0.0228,0.132,3.45,0.132,3.45,-0.7122372737375777,0.0,0.7019387907067559,0.0,1.0,-0.0,1.0,1.0,1.0, 1.0
1067,0.0228,0.132,3.45,0.132,3.45,-0.8621660239143083,0.0,0.5066258453807824,0.0,1.0,-0.0,1.0,1.0,1.0, 1.0
1068,0.0228,0.132,3.45,0.132,3.45,-0.9238774205687761,0.0,0.38268853100554856,0.0,1.0,-0.0,1.0,1.0,1.0, 1.0
1069,0.0228,0.132,3.45,0.132,3.45,-0.9534464576788331,0.0,0.3015623523248303,0.0,1.0,-0.0,1.0,1.0,1.0, 1.0
1070,0.0228,0.132,3.45,0.132,3.45,-0.969205193274781,0.0,0.24625452956076657,0.0,1.0,-0.0,1.0,1.0,1.0, 1.0
1071,0.0228,0.132,3.45,0.132,3.45,-0.9778802064793627,0.0,0.20916572801460326,0.0,1.0,-0.0,1.0,1.0,1.0, 1.0
1072,0.0228,0.132,3.45,0.132,3.45,-0.7090777402857548,0.0,0.7051303129431096,0.0,1.0,-0.0,1.0,1.0,1.0, 1.0
1073,0.0228,0.132,3.45,0.132,3.45,-0.9491777360143383,0.0,0.31474056849204374,0.0,1.0,-0.0,1.0,1.0,1.0, 1.0
1074,0.0228,0.132,3.45,0.132,3.45,-0.9810598628763098,0.0,0.1937047894428955,0.0,1.0,-0.0,1.0,1.0,1.0, 1.0
1075,0.0228,0.132,3.45,0.132,3.45,-0.9904876492462928,0.0,0.13760165947601335,0.0,1.0,-0.0,1.0,1.0,1.0, 1.0
1076,0.0228,0.132,3.45,0.132,3.45,-0.9944485368318421,0.0,0.10522408276154475,0.0,1.0,-0.0,1.0,1.0,1.0, 1.0
1077,0.0228,0.132,3.45,0.132,3.45,-0.9964281125259213,0.0,0.08444534663337004,0.0,1.0,-0.0,1.0,1.0,1.0, 1.0
1078,0.0228,0.132,3.45,0.132,3.45,-0.9974813255378315,0.0,0.07092957918450254,0.0,1.0,-0.0,1.0,1.0,1.0, 1.0
1079,0.0228,0.132,3.45,0.132,3.45,-0.6663359396695383,0.0,0.7456516716971225,0.0,1.0,-0.0,1.0,1.0,1.0, 1.0
1080,0.0228,0.132,3.45,0.132,3.45,-0.6663796728112762,0.0,0.7456125881876837,0.0,1.0,-0.0,1.0,1.0,1.0, 1.0
1081,0.0228,0.132,3.45,0.132,3.45,-0.6665896159018561,0.0,0.7454249016311543,0.0,1.0,-0.0,1.0,1.0,1.0, 1.0
1082,0.0228,0.132,3.45,0.132,3.45,-0.6670683260581409,0.0,0.7449965425221715,0.0,1.0,-0.0,1.0,1.0,1.0, 1.0
1083,0.0228,0.132,3.45,0.132,3.45,-0.6681867730615725,0.0,0.7439935727582345,0.0,1.0,-0.0,1.0,1.0,1.0, 1.0
1084,0.0228,0.132,3.45,0.132,3.45,-0.6710164194512731,0.0,0.7414424892240753,0.0,1.0,-0.0,1.0,1.0,1.0, 1.0
1085,0.0228,0.132,3.45,0.132,3.45,-0.6782840189729248,0.0,0.7347998296175202,0.0,1.0,-0.0,1.0,1.0,1.0, 1.0
1086,0.0228,0.132,3.45,0.132,3.45,-0.5785924539022165,0.0,0.8156168048093488,0.0,1.0,-0.0,1.0,1.0,1.0, 1.0
1087,0.0228,0.132,3.45,0.132,3.45,-0.578619910833835,0.0,0.8155973263729136,0.0,1.0,-0.0,1.0,1.0,1.0, 1.0
1088,0.0228,0.132,3.45,0.132,3.45,-0.5791545114537299,0.0,0.8152177941279197,0.0,1.0,-0.0,1.0,1.0,1.0, 1.0
1089,0.0228,0.132,3.45,0.132,3.45,-0.5804923339545777,0.0,0.8142657122954196,0.0,1.0,-0.0,1.0,1.0,1.0, 1.0
1090,0.0228,0.132,3.45,0.132,3.45,-0.5835275601530499,0.0,0.8120933361023404,0.0,1.0,-0.0,1.0,1.0,1.0, 1.0
1091,0.0228,0.132,3.45,0.132,3.45,-0.5910388908392662,0.0,0.8066430620265012,0.0,1.0,-0.0,1.0,1.0,1.0, 1.0
1092,0.0228,0.132,3.45,0.132,3.45,-0.6091438456852071,0.0,0.7930597551659249,0.0,1.0,-0.0,1.0,1.0,1.0, 1.0
1093,0.0228,0.132,3.45,0.132,3.45,-0.48346040509658683,0.0,0.8753662300453703,0.0,1.0,-0.0,1.0,1.0,1.0, 1.0
1094,0.0228,0.132,3.45,0.132,3.45,-0.4832299316388508,0.0,0.8754934797977147,0.0,1.0,-0.0,1.0,1.0,1.0, 1.0
1095,0.0228,0.132,3.45,0.132,3.45,-0.48377010272335613,0.0,0.8751951140808736,0.0,1.0,-0.0,1.0,1.0,1.0, 1.0
1096,0.0228,0.132,3.45,0.132,3.45,-0.4855214717363214,0.0,0.8742247425479311,0.0,1.0,-0.0,1.0,1.0,1.0, 1.0
1097,0.0228,0.132,3.45,0.132,3.45,-0.48954474836524625,0.0,0.8719781759585543,0.0,1.0,-0.0,1.0,1.0,1.0, 1.0
1098,0.0228,0.132,3.45,0.132,3.45,-0.4992091369801032,0.0,0.8664815275328035,0.0,1.0,-0.0,1.0,1.0,1.0, 1.0
1099,0.0228,0.132,3.45,0.132,3.45,-0.5212738957490191,0.0,0.8533894337350568,0.0,1.0,-0.0,1.0,1.0,1.0, 1.0
1100,0.0228,0.132,3.45,0.132,3.45,-0.38217204471096833,0.0,0.9240911904360076,0.0,1.0,-0.0,1.0,1.0,1.0, 1.0
1101,0.0228,0.132,3.45,0.132,3.45,-0.3815070280494921,0.0,0.9243659381158763,0.0,1.0,-0.0,1.0,1.0,1.0, 1.0
1102,0.0228,0.132,3.45,0.132,3.45,-0.3817481371679595,0.0,0.9242663900460694,0.0,1.0,-0.0,1.0,1.0,1.0, 1.0
1103,0.0228,0.132,3.45,0.132,3.45,-0.3833912198345399,0.0,0.9235860396052896,0.0,1.0,-0.0,1.0,1.0,1.0, 1.0
1104,0.0228,0.132,3.45,0.132,3.45,-0.3874981919296187,0.0,0.9218704633793602,0.0,1.0,-0.0,1.0,1.0,1.0, 1.0
1105,0.0228,0.132,3.45,0.132,3.45,-0.39726706580199955,0.0,0.9177030447966651,0.0,1.0,-0.0,1.0,1.0,1.0, 1.0
1106,0.0228,0.132,3.45,0.132,3.45,-0.4192161250702996,0.0,0.9078864689381833,0.0,1.0,-0.0,1.0,1.0,1.0, 1.0
1107,0.0228,0.132,3.45,0.132,3.45,-0.2761383975232908,0.0,0.9611178832033399,0.0,1.0,-0.0,1.0,1.0,1.0, 1.0
1108,0.0228,0.132,3.45,0.132,3.45,-0.2751126780696245,0.0,0.9614119899217812,0.0,1.0,-0.0,1.0,1.0,1.0, 1.0
1109,0.0228,0.132,3.45,0.132,3.45,-0.2749822702846453,0.0,0.961449297170216,0.0,1.0,-0.0,1.0,1.0,1.0, 1.0
1110,0.0228,0.132,3.45,0.132,3.45,-0.276190322817835,0.0,0.9611029630491106,0.0,1.0,-0.0,1.0,1.0,1.0, 1.0
1111,0.0228,0.132,3.45,0.132,3.45,-0.2796589678214701,0.0,0.9600994019980588,0.0,1.0,-0.0,1.0,1.0,1.0, 1.0
1112,0.0228,0.132,3.45,0.132,3.45,-0.2880410230085347,0.0,0.9576180705605951,0.0,1.0,-0.0,1.0,1.0,1.0, 1.0
1113,0.0228,0.132,3.45,0.132,3.45,-0.30678364456774604,0.0,0.9517792787331163,0.0,1.0,-0.0,1.0,1.0,1.0, 1.0
1114,0.0228,0.132,3.45,0.132,3.45,-0.16683734035796083,0.0,0.9859844328701554,0.0,1.0,-0.0,1.0,1.0,1.0, 1.0
1115,0.0228,0.132,3.45,0.132,3.45,-0.1658152127879343,0.0,0.9861568410795983,0.0,1.0,-0.0,1.0,1.0,1.0, 1.0
1116,0.0228,0.132,3.45,0.132,3.45,-0.16550797040676324,0.0,0.9862084524743407,0.0,1.0,-0.0,1.0,1.0,1.0, 1.0
1117,0.0228,0.132,3.45,0.132,3.45,-0.16621108351901356,0.0,0.9860901965415919,0.0,1.0,-0.0,1.0,1.0,1.0, 1.0
1118,0.0228,0.132,3.45,0.132,3.45,-0.16855993621176663,0.0,0.9856914060213192,0.0,1.0,-0.0,1.0,1.0,1.0, 1.0
1119,0.0228,0.132,3.45,0.132,3.45,-0.17433072983540968,0.0,0.9846871567330678,0.0,1.0,-0.0,1.0,1.0,1.0, 1.0
1120,0.0228,0.132,3.45,0.132,3.45,-0.18718423362774606,0.0,0.9823248254427827,0.0,1.0,-0.0,1.0,1.0,1.0, 1.0
1121,0.0228,0.132,3.45,0.132,3.45,-0.05572577700384339,0.0,0.9984461116040855,0.0,1.0,-0.0,1.0,1.0,1.0, 1.0
1122,0.0228,0.132,3.45,0.132,3.45,-0.05521787894367164,0.0,0.998474329086613,0.0,1.0,-0.0,1.0,1.0,1.0, 1.0
1123,0.0228,0.132,3.45,0.132,3.45,-0.05504954805008914,0.0,0.9984836239315499,0.0,1.0,-0.0,1.0,1.0,1.0, 1.0
1124,0.0228,0.132,3.45,0.132,3.45,-0.055284723555672766,0.0,0.9984706301846704,0.0,1.0,-0.0,1.0,1.0,1.0, 1.0
1125,0.0228,0.132,3.45,0.132,3.45,-0.05615976287383219,0.0,0.9984217951517058,0.0,1.0,-0.0,1.0,1.0,1.0, 1.0
1126,0.0228,0.132,3.45,0.132,3.45,-0.05831376590907031,0.0,0.9982983044689108,0.0,1.0,-0.0,1.0,1.0,1.0, 1.0
1127,0.0228,0.132,3.45,0.132,3.45,-0.06303111344942841,0.0,0.9980115624266712,0.0,1.0,-0.0,1.0,1.0,1.0, 1.0
1128,0.0228,0.132,3.45,0.132,3.45,-0.6663367991357867,0.0,0.7456509036522884,0.0,1.0,-0.0,1.0,1.0,1.0, 1.0
1129,0.0228,0.132,3.45,0.132,3.45,-0.6663918906432198,0.0,0.7456016685100396,0.0,1.0,-0.0,1.0,1.0,1.0, 1.0
1130,0.0228,0.132,3.45,0.132,3.45,-0.6666385167360762,0.0,0.7453811696064802,0.0,1.0,-0.0,1.0,1.0,1.0, 1.0
1131,0.0228,0.132,3.45,0.132,3.45,-0.667181725914356,0.0,0.7448949889789442,0.0,1.0,-0.0,1.0,1.0,1.0, 1.0
1132,0.0228,0.132,3.45,0.132,3.45,-0.6683632854777185,0.0,0.7438350076632787,0.0,1.0,-0.0,1.0,1.0,1.0, 1.0
1133,0.0228,0.132,3.45,0.132,3.45,-0.6712034877763798,0.0,0.7412731466853651,0.0,1.0,-0.0,1.0,1.0,1.0, 1.0
1134,0.0228,0.132,3.45,0.132,3.45,-0.678400892906441,0.0,0.734691927615748,0.0,1.0,-0.0,1.0,1.0,1.0, 1.0
