e_no,c,k1,k2,k3,k4,ax,ay,az,bx,by,bz,pvol,m_g,m_c
1,0.0228,0.132,3.45,0.132,3.45,0.032584011692265547,0.0,0.9994690001105778,-0.0,1.0,0.0,1.0,1.0,1.0, 1.0
2,0.0228,0.132,3.45,0.132,3.45,0.09758618759529586,0.0,0.9952270776011952,-0.0,1.0,0.0,1.0,1.0,1.0, 1.0
3,0.0228,0.132,3.45,0.132,3.45,0.16237486409262286,0.0,0.986729143945238,-0.0,1.0,0.0,1.0,1.0,1.0, 1.0
4,0.0228,0.132,3.45,0.132,3.45,0.2267180440567172,0.0,0.9739604347708876,-0.0,1.0,0.0,1.0,1.0,1.0, 1.0
5,0.0228,0.132,3.45,0.132,3.45,0.2901204318100175,0.0,0.9569901436516308,-0.0,1.0,0.0,1.0,1.0,1.0, 1.0
6,0.0228,0.132,3.45,0.132,3.45,0.35199020049317536,0.0,0.9360036852260647,-0.0,1.0,0.0,1.0,1.0,1.0, 1.0
7,0.0228,0.132,3.45,0.132,3.45,0.411736977233755,0.0,0.9113027277356357,-0.0,1.0,0.0,1.0,1.0,1.0, 1.0
8,0.0228,0.132,3.45,0.132,3.45,0.4688172512585373,0.0,0.8832951856103313,-0.0,1.0,0.0,1.0,1.0,1.0, 1.0
9,0.0228,0.132,3.45,0.132,3.45,0.5227367369060467,0.0,0.8524941664837471,-0.0,1.0,0.0,1.0,1.0,1.0, 1.0
10,0.0228,0.132,3.45,0.132,3.45,0.572998163854307,0.0,0.8195566510129685,-0.0,1.0,0.0,1.0,1.0,1.0, 1.0
11,0.0228,0.132,3.45,0.132,3.45,0.6189966630165207,0.0,0.7853936154403166,-0.0,1.0,0.0,1.0,1.0,1.0, 1.0
12,0.0228,0.132,3.45,0.132,3.45,0.6596224946213474,0.0,0.7515970759585955,-0.0,1.0,0.0,1.0,1.0,1.0, 1.0
13,0.0228,0.132,3.45,0.132,3.45,0.6928146127619136,0.0,0.7211157412950848,-0.0,1.0,0.0,1.0,1.0,1.0, 1.0
14,0.0228,0.132,3.45,0.132,3.45,0.0310666241983674,0.0,0.999517315938507,-0.0,1.0,0.0,1.0,1.0,1.0, 1.0
15,0.0228,0.132,3.45,0.132,3.45,0.09321640275350604,0.0,0.9956458719131497,-0.0,1.0,0.0,1.0,1.0,1.0, 1.0
16,0.0228,0.132,3.45,0.132,3.45,0.1554372905232287,0.0,0.9878457616018794,-0.0,1.0,0.0,1.0,1.0,1.0, 1.0
17,0.0228,0.132,3.45,0.132,3.45,0.21756374049301316,0.0,0.9760461151106994,-0.0,1.0,0.0,1.0,1.0,1.0, 1.0
18,0.0228,0.132,3.45,0.132,3.45,0.27917143201973393,0.0,0.9602412777755656,-0.0,1.0,0.0,1.0,1.0,1.0, 1.0
19,0.0228,0.132,3.45,0.132,3.45,0.3397169806331115,0.0,0.9405277098892526,-0.0,1.0,0.0,1.0,1.0,1.0, 1.0
20,0.0228,0.132,3.45,0.132,3.45,0.3986231592904499,0.0,0.9171148111754059,-0.0,1.0,0.0,1.0,1.0,1.0, 1.0
21,0.0228,0.132,3.45,0.132,3.45,0.455342929077036,0.0,0.8903161331457188,-0.0,1.0,0.0,1.0,1.0,1.0, 1.0
22,0.0228,0.132,3.45,0.132,3.45,0.5093646503828818,0.0,0.8605507846375625,-0.0,1.0,0.0,1.0,1.0,1.0, 1.0
23,0.0228,0.132,3.45,0.132,3.45,0.5601888651604567,0.0,0.828364916778976,-0.0,1.0,0.0,1.0,1.0,1.0, 1.0
24,0.0228,0.132,3.45,0.132,3.45,0.6073737259551324,0.0,0.7944162366287459,-0.0,1.0,0.0,1.0,1.0,1.0, 1.0
25,0.0228,0.132,3.45,0.132,3.45,0.6504437030950232,0.0,0.7595544675031759,-0.0,1.0,0.0,1.0,1.0,1.0, 1.0
26,0.0228,0.132,3.45,0.132,3.45,0.6891025358839653,0.0,0.7246638496836227,-0.0,1.0,0.0,1.0,1.0,1.0, 1.0
27,0.0228,0.132,3.45,0.132,3.45,0.03021494296125535,0.0,0.9995434243802758,-0.0,1.0,0.0,1.0,1.0,1.0, 1.0
28,0.0228,0.132,3.45,0.132,3.45,0.09079844735657505,0.0,0.995869289594591,-0.0,1.0,0.0,1.0,1.0,1.0, 1.0
29,0.0228,0.132,3.45,0.132,3.45,0.15162150650478975,0.0,0.9884386267063919,-0.0,1.0,0.0,1.0,1.0,1.0, 1.0
30,0.0228,0.132,3.45,0.132,3.45,0.21253652771819878,0.0,0.9771531222820153,-0.0,1.0,0.0,1.0,1.0,1.0, 1.0
31,0.0228,0.132,3.45,0.132,3.45,0.2731592967510426,0.0,0.9619688137348714,-0.0,1.0,0.0,1.0,1.0,1.0, 1.0
32,0.0228,0.132,3.45,0.132,3.45,0.33298378327573463,0.0,0.9429325533013369,-0.0,1.0,0.0,1.0,1.0,1.0, 1.0
33,0.0228,0.132,3.45,0.132,3.45,0.3914614045766541,0.0,0.9201945276553611,-0.0,1.0,0.0,1.0,1.0,1.0, 1.0
34,0.0228,0.132,3.45,0.132,3.45,0.44805066693179807,0.0,0.8940081654336111,-0.0,1.0,0.0,1.0,1.0,1.0, 1.0
35,0.0228,0.132,3.45,0.132,3.45,0.5022473350776167,0.0,0.8647240105417636,-0.0,1.0,0.0,1.0,1.0,1.0, 1.0
36,0.0228,0.132,3.45,0.132,3.45,0.5535801137340175,0.0,0.8327959279909046,-0.0,1.0,0.0,1.0,1.0,1.0, 1.0
37,0.0228,0.132,3.45,0.132,3.45,0.6016672555842287,0.0,0.7987468394665124,-0.0,1.0,0.0,1.0,1.0,1.0, 1.0
38,0.0228,0.132,3.45,0.132,3.45,0.6462922557684039,0.0,0.7630899816756789,-0.0,1.0,0.0,1.0,1.0,1.0, 1.0
39,0.0228,0.132,3.45,0.132,3.45,0.6875480318792117,0.0,0.7261389012158918,-0.0,1.0,0.0,1.0,1.0,1.0, 1.0
40,0.0228,0.132,3.45,0.132,3.45,0.029712777113336652,0.0,0.9995584779672538,-0.0,1.0,0.0,1.0,1.0,1.0, 1.0
41,0.0228,0.132,3.45,0.132,3.45,0.08939085452332561,0.0,0.9959966240543136,-0.0,1.0,0.0,1.0,1.0,1.0, 1.0
42,0.0228,0.132,3.45,0.132,3.45,0.1494085743503797,0.0,0.9887755447575487,-0.0,1.0,0.0,1.0,1.0,1.0, 1.0
43,0.0228,0.132,3.45,0.132,3.45,0.209616414959282,0.0,0.9777836972355481,-0.0,1.0,0.0,1.0,1.0,1.0, 1.0
44,0.0228,0.132,3.45,0.132,3.45,0.269654214621191,0.0,0.9629572184354966,-0.0,1.0,0.0,1.0,1.0,1.0, 1.0
45,0.0228,0.132,3.45,0.132,3.45,0.3290458072482451,0.0,0.9443139608903126,-0.0,1.0,0.0,1.0,1.0,1.0, 1.0
46,0.0228,0.132,3.45,0.132,3.45,0.38727568532429657,0.0,0.9219639600096071,-0.0,1.0,0.0,1.0,1.0,1.0, 1.0
47,0.0228,0.132,3.45,0.132,3.45,0.44381488032046446,0.0,0.8961184921683806,-0.0,1.0,0.0,1.0,1.0,1.0, 1.0
48,0.0228,0.132,3.45,0.132,3.45,0.49817749357848223,0.0,0.8670750745419116,-0.0,1.0,0.0,1.0,1.0,1.0, 1.0
49,0.0228,0.132,3.45,0.132,3.45,0.5499253470148512,0.0,0.8352138125717244,-0.0,1.0,0.0,1.0,1.0,1.0, 1.0
50,0.0228,0.132,3.45,0.132,3.45,0.5986842834135037,0.0,0.8009850989835328,-0.0,1.0,0.0,1.0,1.0,1.0, 1.0
51,0.0228,0.132,3.45,0.132,3.45,0.6442747455338598,0.0,0.7647941241061416,-0.0,1.0,0.0,1.0,1.0,1.0, 1.0
52,0.0228,0.132,3.45,0.132,3.45,0.6868320744306133,0.0,0.726816140116151,-0.0,1.0,0.0,1.0,1.0,1.0, 1.0
53,0.0228,0.132,3.45,0.132,3.45,0.029403249903798022,0.0,0.9995676309760609,-0.0,1.0,0.0,1.0,1.0,1.0, 1.0
54,0.0228,0.132,3.45,0.132,3.45,0.08852626244230236,0.0,0.9960738430748981,-0.0,1.0,0.0,1.0,1.0,1.0, 1.0
55,0.0228,0.132,3.45,0.132,3.45,0.14803982779348357,0.0,0.9889813999195717,-0.0,1.0,0.0,1.0,1.0,1.0, 1.0
56,0.0228,0.132,3.45,0.132,3.45,0.20778653072867753,0.0,0.9781741959629381,-0.0,1.0,0.0,1.0,1.0,1.0, 1.0
57,0.0228,0.132,3.45,0.132,3.45,0.26742341937142833,0.0,0.963579117027602,-0.0,1.0,0.0,1.0,1.0,1.0, 1.0
58,0.0228,0.132,3.45,0.132,3.45,0.32650346657264245,0.0,0.9451960041790524,-0.0,1.0,0.0,1.0,1.0,1.0, 1.0
59,0.0228,0.132,3.45,0.132,3.45,0.3845362177767326,0.0,0.9231099052756205,-0.0,1.0,0.0,1.0,1.0,1.0, 1.0
60,0.0228,0.132,3.45,0.132,3.45,0.44102349700578497,0.0,0.8974955571415316,-0.0,1.0,0.0,1.0,1.0,1.0, 1.0
61,0.0228,0.132,3.45,0.132,3.45,0.4955009422061722,0.0,0.8686074005399652,-0.0,1.0,0.0,1.0,1.0,1.0, 1.0
62,0.0228,0.132,3.45,0.132,3.45,0.5475415679460937,0.0,0.836778484051265,-0.0,1.0,0.0,1.0,1.0,1.0, 1.0
63,0.0228,0.132,3.45,0.132,3.45,0.5967834703396984,0.0,0.8024023239804994,-0.0,1.0,0.0,1.0,1.0,1.0, 1.0
64,0.0228,0.132,3.45,0.132,3.45,0.6430508580408579,0.0,0.7658234744201279,-0.0,1.0,0.0,1.0,1.0,1.0, 1.0
65,0.0228,0.132,3.45,0.132,3.45,0.6864159121459315,0.0,0.727209182802905,-0.0,1.0,0.0,1.0,1.0,1.0, 1.0
66,0.0228,0.132,3.45,0.132,3.45,0.0292269139265259,0.0,0.9995728025023146,-0.0,1.0,0.0,1.0,1.0,1.0, 1.0
67,0.0228,0.132,3.45,0.132,3.45,0.08802884087473066,0.0,0.9961179263391715,-0.0,1.0,0.0,1.0,1.0,1.0, 1.0
68,0.0228,0.132,3.45,0.132,3.45,0.14723194413319357,0.0,0.9891019940464988,-0.0,1.0,0.0,1.0,1.0,1.0, 1.0
69,0.0228,0.132,3.45,0.132,3.45,0.20666874960883366,0.0,0.9784109708783528,-0.0,1.0,0.0,1.0,1.0,1.0, 1.0
70,0.0228,0.132,3.45,0.132,3.45,0.26601254208274705,0.0,0.9639695677015301,-0.0,1.0,0.0,1.0,1.0,1.0, 1.0
71,0.0228,0.132,3.45,0.132,3.45,0.3248415732025942,0.0,0.9457684454026068,-0.0,1.0,0.0,1.0,1.0,1.0, 1.0
72,0.0228,0.132,3.45,0.132,3.45,0.3826960857254481,0.0,0.9238742912162998,-0.0,1.0,0.0,1.0,1.0,1.0, 1.0
73,0.0228,0.132,3.45,0.132,3.45,0.4391069072827387,0.0,0.8984348189916664,-0.0,1.0,0.0,1.0,1.0,1.0, 1.0
74,0.0228,0.132,3.45,0.132,3.45,0.4936282861786337,0.0,0.8696729931901674,-0.0,1.0,0.0,1.0,1.0,1.0, 1.0
75,0.0228,0.132,3.45,0.132,3.45,0.5458538723854703,0.0,0.8378803912264486,-0.0,1.0,0.0,1.0,1.0,1.0, 1.0
76,0.0228,0.132,3.45,0.132,3.45,0.5954428068489855,0.0,0.8033976996306385,-0.0,1.0,0.0,1.0,1.0,1.0, 1.0
77,0.0228,0.132,3.45,0.132,3.45,0.642190056898788,0.0,0.7665454525468999,-0.0,1.0,0.0,1.0,1.0,1.0, 1.0
78,0.0228,0.132,3.45,0.132,3.45,0.686123285028059,0.0,0.7274852835228386,-0.0,1.0,0.0,1.0,1.0,1.0, 1.0
79,0.0228,0.132,3.45,0.132,3.45,0.029152340699731064,0.0,0.9995749801949461,-0.0,1.0,0.0,1.0,1.0,1.0, 1.0
80,0.0228,0.132,3.45,0.132,3.45,0.08780940896378804,0.0,0.9961372935983424,-0.0,1.0,0.0,1.0,1.0,1.0, 1.0
81,0.0228,0.132,3.45,0.132,3.45,0.14684656622980727,0.0,0.9891592824143717,-0.0,1.0,0.0,1.0,1.0,1.0, 1.0
82,0.0228,0.132,3.45,0.132,3.45,0.2060842692952897,0.0,0.9785342477139094,-0.0,1.0,0.0,1.0,1.0,1.0, 1.0
83,0.0228,0.132,3.45,0.132,3.45,0.26520985774441874,0.0,0.9641907131658057,-0.0,1.0,0.0,1.0,1.0,1.0, 1.0
84,0.0228,0.132,3.45,0.132,3.45,0.32382634963153467,0.0,0.9461165336703058,-0.0,1.0,0.0,1.0,1.0,1.0, 1.0
85,0.0228,0.132,3.45,0.132,3.45,0.38150822160709635,0.0,0.9243654455063705,-0.0,1.0,0.0,1.0,1.0,1.0, 1.0
86,0.0228,0.132,3.45,0.132,3.45,0.4378130748536278,0.0,0.899066021762146,-0.0,1.0,0.0,1.0,1.0,1.0, 1.0
87,0.0228,0.132,3.45,0.132,3.45,0.4923199599343797,0.0,0.8704143019563793,-0.0,1.0,0.0,1.0,1.0,1.0, 1.0
88,0.0228,0.132,3.45,0.132,3.45,0.5446421764968103,0.0,0.8386685278349352,-0.0,1.0,0.0,1.0,1.0,1.0, 1.0
89,0.0228,0.132,3.45,0.132,3.45,0.5944568685179132,0.0,0.804127497025115,-0.0,1.0,0.0,1.0,1.0,1.0, 1.0
90,0.0228,0.132,3.45,0.132,3.45,0.6415485587889039,0.0,0.7670824249817487,-0.0,1.0,0.0,1.0,1.0,1.0, 1.0
91,0.0228,0.132,3.45,0.132,3.45,0.6859040461502116,0.0,0.7276919949228302,-0.0,1.0,0.0,1.0,1.0,1.0, 1.0
92,0.0228,0.132,3.45,0.132,3.45,0.029156248690211804,0.0,0.9995748662117884,-0.0,1.0,0.0,1.0,1.0,1.0, 1.0
93,0.0228,0.132,3.45,0.132,3.45,0.08780576109389755,0.0,0.9961376151509997,-0.0,1.0,0.0,1.0,1.0,1.0, 1.0
94,0.0228,0.132,3.45,0.132,3.45,0.14678869796835628,0.0,0.9891678715712287,-0.0,1.0,0.0,1.0,1.0,1.0, 1.0
95,0.0228,0.132,3.45,0.132,3.45,0.205912259514169,0.0,0.9785704580569401,-0.0,1.0,0.0,1.0,1.0,1.0, 1.0
96,0.0228,0.132,3.45,0.132,3.45,0.26487454256524046,0.0,0.9642828820946966,-0.0,1.0,0.0,1.0,1.0,1.0, 1.0
97,0.0228,0.132,3.45,0.132,3.45,0.32330721042117505,0.0,0.9462940598406385,-0.0,1.0,0.0,1.0,1.0,1.0, 1.0
98,0.0228,0.132,3.45,0.132,3.45,0.3808129462425549,0.0,0.9246520967229053,-0.0,1.0,0.0,1.0,1.0,1.0, 1.0
99,0.0228,0.132,3.45,0.132,3.45,0.43698421502443013,0.0,0.8994691744687433,-0.0,1.0,0.0,1.0,1.0,1.0, 1.0
100,0.0228,0.132,3.45,0.132,3.45,0.49143564920464533,0.0,0.8709138893661121,-0.0,1.0,0.0,1.0,1.0,1.0, 1.0
101,0.0228,0.132,3.45,0.132,3.45,0.5437862619458376,0.0,0.8392237492581898,-0.0,1.0,0.0,1.0,1.0,1.0, 1.0
102,0.0228,0.132,3.45,0.132,3.45,0.5937322685998406,0.0,0.8046626580271304,-0.0,1.0,0.0,1.0,1.0,1.0, 1.0
103,0.0228,0.132,3.45,0.132,3.45,0.6410682401289928,0.0,0.7674838835427854,-0.0,1.0,0.0,1.0,1.0,1.0, 1.0
104,0.0228,0.132,3.45,0.132,3.45,0.6857400882681705,0.0,0.7278465025965034,-0.0,1.0,0.0,1.0,1.0,1.0, 1.0
105,0.0228,0.132,3.45,0.132,3.45,0.029222806583254247,0.0,0.9995729225901417,-0.0,1.0,0.0,1.0,1.0,1.0, 1.0
106,0.0228,0.132,3.45,0.132,3.45,0.08797731137876975,0.0,0.9961224787557819,-0.0,1.0,0.0,1.0,1.0,1.0, 1.0
107,0.0228,0.132,3.45,0.132,3.45,0.1469947726538739,0.0,0.9891372689432119,-0.0,1.0,0.0,1.0,1.0,1.0, 1.0
108,0.0228,0.132,3.45,0.132,3.45,0.20606950557795398,0.0,0.9785373569112513,-0.0,1.0,0.0,1.0,1.0,1.0, 1.0
109,0.0228,0.132,3.45,0.132,3.45,0.26491136088916867,0.0,0.9642727678783884,-0.0,1.0,0.0,1.0,1.0,1.0, 1.0
110,0.0228,0.132,3.45,0.132,3.45,0.32318111433141666,0.0,0.9463371319669877,-0.0,1.0,0.0,1.0,1.0,1.0, 1.0
111,0.0228,0.132,3.45,0.132,3.45,0.3805108292770054,0.0,0.9247764642349662,-0.0,1.0,0.0,1.0,1.0,1.0, 1.0
112,0.0228,0.132,3.45,0.132,3.45,0.43652884085702587,0.0,0.8996902639797886,-0.0,1.0,0.0,1.0,1.0,1.0, 1.0
113,0.0228,0.132,3.45,0.132,3.45,0.4908749282324699,0.0,0.8712300527603302,-0.0,1.0,0.0,1.0,1.0,1.0, 1.0
114,0.0228,0.132,3.45,0.132,3.45,0.5432001509364709,0.0,0.839603237263051,-0.0,1.0,0.0,1.0,1.0,1.0, 1.0
115,0.0228,0.132,3.45,0.132,3.45,0.5932182801369357,0.0,0.8050416586185937,-0.0,1.0,0.0,1.0,1.0,1.0, 1.0
116,0.0228,0.132,3.45,0.132,3.45,0.6407181959300493,0.0,0.7677761349535052,-0.0,1.0,0.0,1.0,1.0,1.0, 1.0
117,0.0228,0.132,3.45,0.132,3.45,0.6856202331436435,0.0,0.7279594053956966,-0.0,1.0,0.0,1.0,1.0,1.0, 1.0
118,0.0228,0.132,3.45,0.132,3.45,0.02934353274784251,0.0,0.9995693858286558,-0.0,1.0,0.0,1.0,1.0,1.0, 1.0
119,0.0228,0.132,3.45,0.132,3.45,0.0883014168015223,0.0,0.996093800698932,-0.0,1.0,0.0,1.0,1.0,1.0, 1.0
120,0.0228,0.132,3.45,0.132,3.45,0.14742966384811432,0.0,0.9890725424445023,-0.0,1.0,0.0,1.0,1.0,1.0, 1.0
121,0.0228,0.132,3.45,0.132,3.45,0.20651105417762688,0.0,0.9784442674483025,-0.0,1.0,0.0,1.0,1.0,1.0, 1.0
122,0.0228,0.132,3.45,0.132,3.45,0.26527002471148836,0.0,0.9641741616479703,-0.0,1.0,0.0,1.0,1.0,1.0, 1.0
123,0.0228,0.132,3.45,0.132,3.45,0.3233906069437314,0.0,0.9462655627996641,-0.0,1.0,0.0,1.0,1.0,1.0, 1.0
124,0.0228,0.132,3.45,0.132,3.45,0.38054100292849075,0.0,0.924764048333508,-0.0,1.0,0.0,1.0,1.0,1.0, 1.0
125,0.0228,0.132,3.45,0.132,3.45,0.4363832276354397,0.0,0.8997609008166981,-0.0,1.0,0.0,1.0,1.0,1.0, 1.0
126,0.0228,0.132,3.45,0.132,3.45,0.49058650886664157,0.0,0.871392493264683,-0.0,1.0,0.0,1.0,1.0,1.0, 1.0
127,0.0228,0.132,3.45,0.132,3.45,0.5428396304694922,0.0,0.8398363742966514,-0.0,1.0,0.0,1.0,1.0,1.0, 1.0
128,0.0228,0.132,3.45,0.132,3.45,0.5928744494129409,0.0,0.8052949069957555,-0.0,1.0,0.0,1.0,1.0,1.0, 1.0
129,0.0228,0.132,3.45,0.132,3.45,0.6404744158015622,0.0,0.7679795066950992,-0.0,1.0,0.0,1.0,1.0,1.0, 1.0
130,0.0228,0.132,3.45,0.132,3.45,0.6855341210153273,0.0,0.7280404995079207,-0.0,1.0,0.0,1.0,1.0,1.0, 1.0
131,0.0228,0.132,3.45,0.132,3.45,0.029517250576446927,0.0,0.9995642710293356,-0.0,1.0,0.0,1.0,1.0,1.0, 1.0
132,0.0228,0.132,3.45,0.132,3.45,0.08876750411791405,0.0,0.9960523732277717,-0.0,1.0,0.0,1.0,1.0,1.0, 1.0
133,0.0228,0.132,3.45,0.132,3.45,0.1480765359062161,0.0,0.9889759044152769,-0.0,1.0,0.0,1.0,1.0,1.0, 1.0
134,0.0228,0.132,3.45,0.132,3.45,0.20721210152086758,0.0,0.9782960415862396,-0.0,1.0,0.0,1.0,1.0,1.0, 1.0
135,0.0228,0.132,3.45,0.132,3.45,0.2659169106487639,0.0,0.9639959526009523,-0.0,1.0,0.0,1.0,1.0,1.0, 1.0
136,0.0228,0.132,3.45,0.132,3.45,0.32389973765874075,0.0,0.9460914120446285,-0.0,1.0,0.0,1.0,1.0,1.0, 1.0
137,0.0228,0.132,3.45,0.132,3.45,0.380864234199162,0.0,0.9246309723927085,-0.0,1.0,0.0,1.0,1.0,1.0, 1.0
138,0.0228,0.132,3.45,0.132,3.45,0.436510173014337,0.0,0.8996993213596384,-0.0,1.0,0.0,1.0,1.0,1.0, 1.0
139,0.0228,0.132,3.45,0.132,3.45,0.49054447305955673,0.0,0.8714161577287409,-0.0,1.0,0.0,1.0,1.0,1.0, 1.0
140,0.0228,0.132,3.45,0.132,3.45,0.5426853383396751,0.0,0.8399360830153403,-0.0,1.0,0.0,1.0,1.0,1.0, 1.0
141,0.0228,0.132,3.45,0.132,3.45,0.5926735136698973,0.0,0.8054428013174978,-0.0,1.0,0.0,1.0,1.0,1.0, 1.0
142,0.0228,0.132,3.45,0.132,3.45,0.640316405736168,0.0,0.7681112553172977,-0.0,1.0,0.0,1.0,1.0,1.0, 1.0
143,0.0228,0.132,3.45,0.132,3.45,0.6854787379164529,0.0,0.7280926451108176,-0.0,1.0,0.0,1.0,1.0,1.0, 1.0
144,0.0228,0.132,3.45,0.132,3.45,0.02974670609878675,0.0,0.9995574688212141,-0.0,1.0,0.0,1.0,1.0,1.0, 1.0
145,0.0228,0.132,3.45,0.132,3.45,0.08937190108853019,0.0,0.9959983249462933,-0.0,1.0,0.0,1.0,1.0,1.0, 1.0
146,0.0228,0.132,3.45,0.132,3.45,0.1489189098246341,0.0,0.9888494113345281,-0.0,1.0,0.0,1.0,1.0,1.0, 1.0
147,0.0228,0.132,3.45,0.132,3.45,0.2081481431539203,0.0,0.9780973113660906,-0.0,1.0,0.0,1.0,1.0,1.0, 1.0
148,0.0228,0.132,3.45,0.132,3.45,0.26682107384822334,0.0,0.9637460840649269,-0.0,1.0,0.0,1.0,1.0,1.0, 1.0
149,0.0228,0.132,3.45,0.132,3.45,0.3246747701417095,0.0,0.9458257205391637,-0.0,1.0,0.0,1.0,1.0,1.0, 1.0
150,0.0228,0.132,3.45,0.132,3.45,0.38145022451455357,0.0,0.9243893801952707,-0.0,1.0,0.0,1.0,1.0,1.0, 1.0
151,0.0228,0.132,3.45,0.132,3.45,0.4368862018738685,0.0,0.899516785064195,-0.0,1.0,0.0,1.0,1.0,1.0, 1.0
152,0.0228,0.132,3.45,0.132,3.45,0.4907174815903749,0.0,0.8713187437795653,-0.0,1.0,0.0,1.0,1.0,1.0, 1.0
153,0.0228,0.132,3.45,0.132,3.45,0.5426985517411235,0.0,0.8399275456478893,-0.0,1.0,0.0,1.0,1.0,1.0, 1.0
154,0.0228,0.132,3.45,0.132,3.45,0.5925966015319074,0.0,0.8054993903491386,-0.0,1.0,0.0,1.0,1.0,1.0, 1.0
155,0.0228,0.132,3.45,0.132,3.45,0.6402275850002452,0.0,0.7681852897607152,-0.0,1.0,0.0,1.0,1.0,1.0, 1.0
156,0.0228,0.132,3.45,0.132,3.45,0.6854427220500016,0.0,0.7281265513553838,-0.0,1.0,0.0,1.0,1.0,1.0, 1.0
157,0.0228,0.132,3.45,0.132,3.45,0.030038577789439084,0.0,0.9995487401044473,-0.0,1.0,0.0,1.0,1.0,1.0, 1.0
158,0.0228,0.132,3.45,0.132,3.45,0.09010188985361137,0.0,0.9959325526584658,-0.0,1.0,0.0,1.0,1.0,1.0, 1.0
159,0.0228,0.132,3.45,0.132,3.45,0.14992274781615864,0.0,0.9886977140093187,-0.0,1.0,0.0,1.0,1.0,1.0, 1.0
160,0.0228,0.132,3.45,0.132,3.45,0.2092735489178706,0.0,0.97785713768593,-0.0,1.0,0.0,1.0,1.0,1.0, 1.0
161,0.0228,0.132,3.45,0.132,3.45,0.2679324686654471,0.0,0.9634376950456316,-0.0,1.0,0.0,1.0,1.0,1.0, 1.0
162,0.0228,0.132,3.45,0.132,3.45,0.3256641629770946,0.0,0.9454855117623052,-0.0,1.0,0.0,1.0,1.0,1.0, 1.0
163,0.0228,0.132,3.45,0.132,3.45,0.3822448075224933,0.0,0.9240610949077404,-0.0,1.0,0.0,1.0,1.0,1.0, 1.0
164,0.0228,0.132,3.45,0.132,3.45,0.43745100095382666,0.0,0.8992422486541072,-0.0,1.0,0.0,1.0,1.0,1.0, 1.0
165,0.0228,0.132,3.45,0.132,3.45,0.49105102042735427,0.0,0.8711308141360024,-0.0,1.0,0.0,1.0,1.0,1.0, 1.0
166,0.0228,0.132,3.45,0.132,3.45,0.5428428525885781,0.0,0.8398342916275181,-0.0,1.0,0.0,1.0,1.0,1.0, 1.0
167,0.0228,0.132,3.45,0.132,3.45,0.5926259842758977,0.0,0.805477772977643,-0.0,1.0,0.0,1.0,1.0,1.0, 1.0
168,0.0228,0.132,3.45,0.132,3.45,0.640209701756649,0.0,0.7682001938145175,-0.0,1.0,0.0,1.0,1.0,1.0, 1.0
169,0.0228,0.132,3.45,0.132,3.45,0.68543090182541,0.0,0.7281376784803855,-0.0,1.0,0.0,1.0,1.0,1.0, 1.0
170,0.0228,0.132,3.45,0.132,3.45,0.03324024471598765,0.0,0.9994473903769129,-0.0,1.0,0.0,1.0,1.0,1.0, 1.0
171,0.0228,0.132,3.45,0.132,3.45,0.09977007770217448,0.0,0.9950105183340034,-0.0,1.0,0.0,1.0,1.0,1.0, 1.0
172,0.0228,0.132,3.45,0.132,3.45,0.16592209588413875,0.0,0.9861388634961177,-0.0,1.0,0.0,1.0,1.0,1.0, 1.0
173,0.0228,0.132,3.45,0.132,3.45,0.23129375442836247,0.0,0.9728839597621252,-0.0,1.0,0.0,1.0,1.0,1.0, 1.0
174,0.0228,0.132,3.45,0.132,3.45,0.2954197147885746,0.0,0.9553675691137088,-0.0,1.0,0.0,1.0,1.0,1.0, 1.0
175,0.0228,0.132,3.45,0.132,3.45,0.3577610123744114,0.0,0.933813181543737,-0.0,1.0,0.0,1.0,1.0,1.0, 1.0
176,0.0228,0.132,3.45,0.132,3.45,0.4177552155331174,0.0,0.9085596182391549,-0.0,1.0,0.0,1.0,1.0,1.0, 1.0
177,0.0228,0.132,3.45,0.132,3.45,0.4748583546039827,0.0,0.8800622381756862,-0.0,1.0,0.0,1.0,1.0,1.0, 1.0
178,0.0228,0.132,3.45,0.132,3.45,0.528531120049979,0.0,0.8489139268139702,-0.0,1.0,0.0,1.0,1.0,1.0, 1.0
179,0.0228,0.132,3.45,0.132,3.45,0.5781845694297623,0.0,0.8159060017387546,-0.0,1.0,0.0,1.0,1.0,1.0, 1.0
180,0.0228,0.132,3.45,0.132,3.45,0.6230772448318882,0.0,0.7821603077200372,-0.0,1.0,0.0,1.0,1.0,1.0, 1.0
181,0.0228,0.132,3.45,0.132,3.45,0.6620994196439156,0.0,0.7494160116431927,-0.0,1.0,0.0,1.0,1.0,1.0, 1.0
182,0.0228,0.132,3.45,0.132,3.45,0.6936043094461403,0.0,0.7203562048859875,-0.0,1.0,0.0,1.0,1.0,1.0, 1.0
183,0.0228,0.132,3.45,0.132,3.45,0.03160464243869296,0.0,0.9995004485123168,-0.0,1.0,0.0,1.0,1.0,1.0, 1.0
184,0.0228,0.132,3.45,0.132,3.45,0.0950219831485749,0.0,0.9954751743356095,-0.0,1.0,0.0,1.0,1.0,1.0, 1.0
185,0.0228,0.132,3.45,0.132,3.45,0.15835483190910815,0.0,0.987382270050986,-0.0,1.0,0.0,1.0,1.0,1.0, 1.0
186,0.0228,0.132,3.45,0.132,3.45,0.22128218308401262,0.0,0.9752098212433945,-0.0,1.0,0.0,1.0,1.0,1.0, 1.0
187,0.0228,0.132,3.45,0.132,3.45,0.2834095103425461,0.0,0.9589989830273015,-0.0,1.0,0.0,1.0,1.0,1.0, 1.0
188,0.0228,0.132,3.45,0.132,3.45,0.344248995652187,0.0,0.9388783888195854,-0.0,1.0,0.0,1.0,1.0,1.0, 1.0
189,0.0228,0.132,3.45,0.132,3.45,0.4032641216614508,0.0,0.9150836290638242,-0.0,1.0,0.0,1.0,1.0,1.0, 1.0
190,0.0228,0.132,3.45,0.132,3.45,0.4599180980128604,0.0,0.8879613410054702,-0.0,1.0,0.0,1.0,1.0,1.0, 1.0
191,0.0228,0.132,3.45,0.132,3.45,0.5136829768352111,0.0,0.8579800692963189,-0.0,1.0,0.0,1.0,1.0,1.0, 1.0
192,0.0228,0.132,3.45,0.132,3.45,0.5640269748780737,0.0,0.8257563633481058,-0.0,1.0,0.0,1.0,1.0,1.0, 1.0
193,0.0228,0.132,3.45,0.132,3.45,0.6104278720549607,0.0,0.7920718483941039,-0.0,1.0,0.0,1.0,1.0,1.0, 1.0
194,0.0228,0.132,3.45,0.132,3.45,0.6523835187068563,0.0,0.7578890054088797,-0.0,1.0,0.0,1.0,1.0,1.0, 1.0
195,0.0228,0.132,3.45,0.132,3.45,0.6897517718358226,0.0,0.7240459192961061,-0.0,1.0,0.0,1.0,1.0,1.0, 1.0
196,0.0228,0.132,3.45,0.132,3.45,0.03058002455741862,0.0,0.9995323216875318,-0.0,1.0,0.0,1.0,1.0,1.0, 1.0
197,0.0228,0.132,3.45,0.132,3.45,0.09207879211365162,0.0,0.9957517240973731,-0.0,1.0,0.0,1.0,1.0,1.0, 1.0
198,0.0228,0.132,3.45,0.132,3.45,0.1536848672628863,0.0,0.9881199125482641,-0.0,1.0,0.0,1.0,1.0,1.0, 1.0
199,0.0228,0.132,3.45,0.132,3.45,0.21511191336761248,0.0,0.9765894043697815,-0.0,1.0,0.0,1.0,1.0,1.0, 1.0
200,0.0228,0.132,3.45,0.132,3.45,0.27600959682125875,0.0,0.9611548795394872,-0.0,1.0,0.0,1.0,1.0,1.0, 1.0
201,0.0228,0.132,3.45,0.132,3.45,0.33592747776203913,0.0,0.9418878540911517,-0.0,1.0,0.0,1.0,1.0,1.0, 1.0
202,0.0228,0.132,3.45,0.132,3.45,0.39435776949981194,0.0,0.9189569900899244,-0.0,1.0,0.0,1.0,1.0,1.0, 1.0
203,0.0228,0.132,3.45,0.132,3.45,0.45078063924390027,0.0,0.8926347602927305,-0.0,1.0,0.0,1.0,1.0,1.0, 1.0
204,0.0228,0.132,3.45,0.132,3.45,0.504706918612671,0.0,0.8632907542100187,-0.0,1.0,0.0,1.0,1.0,1.0, 1.0
205,0.0228,0.132,3.45,0.132,3.45,0.5556657654202689,0.0,0.8314057716541945,-0.0,1.0,0.0,1.0,1.0,1.0, 1.0
206,0.0228,0.132,3.45,0.132,3.45,0.6032636767811672,0.0,0.7975418084818295,-0.0,1.0,0.0,1.0,1.0,1.0, 1.0
207,0.0228,0.132,3.45,0.132,3.45,0.6472857184868809,0.0,0.7622474654880279,-0.0,1.0,0.0,1.0,1.0,1.0, 1.0
208,0.0228,0.132,3.45,0.132,3.45,0.6878744627608014,0.0,0.7258296793887246,-0.0,1.0,0.0,1.0,1.0,1.0, 1.0
209,0.0228,0.132,3.45,0.132,3.45,0.029939313487045992,0.0,0.9995517182757101,-0.0,1.0,0.0,1.0,1.0,1.0, 1.0
210,0.0228,0.132,3.45,0.132,3.45,0.09025806855585962,0.0,0.9959184108452689,-0.0,1.0,0.0,1.0,1.0,1.0, 1.0
211,0.0228,0.132,3.45,0.132,3.45,0.1508107153471648,0.0,0.9885626576684335,-0.0,1.0,0.0,1.0,1.0,1.0, 1.0
212,0.0228,0.132,3.45,0.132,3.45,0.21132101847472048,0.0,0.9774167111067863,-0.0,1.0,0.0,1.0,1.0,1.0, 1.0
213,0.0228,0.132,3.45,0.132,3.45,0.2714601650218061,0.0,0.9624496759864037,-0.0,1.0,0.0,1.0,1.0,1.0, 1.0
214,0.0228,0.132,3.45,0.132,3.45,0.33080865880409754,0.0,0.9436978495579156,-0.0,1.0,0.0,1.0,1.0,1.0, 1.0
215,0.0228,0.132,3.45,0.132,3.45,0.3888922357445933,0.0,0.9212832512194997,-0.0,1.0,0.0,1.0,1.0,1.0, 1.0
216,0.0228,0.132,3.45,0.132,3.45,0.44521635163443063,0.0,0.8954230286503285,-0.0,1.0,0.0,1.0,1.0,1.0, 1.0
217,0.0228,0.132,3.45,0.132,3.45,0.4993084115437522,0.0,0.866424324544074,-0.0,1.0,0.0,1.0,1.0,1.0, 1.0
218,0.0228,0.132,3.45,0.132,3.45,0.550759517644021,0.0,0.8346639765345844,-0.0,1.0,0.0,1.0,1.0,1.0, 1.0
219,0.0228,0.132,3.45,0.132,3.45,0.5992252758555586,0.0,0.8005804574031454,-0.0,1.0,0.0,1.0,1.0,1.0, 1.0
220,0.0228,0.132,3.45,0.132,3.45,0.6445607422430745,0.0,0.7645531044728398,-0.0,1.0,0.0,1.0,1.0,1.0, 1.0
221,0.0228,0.132,3.45,0.132,3.45,0.6869186716790392,0.0,0.7267342970430831,-0.0,1.0,0.0,1.0,1.0,1.0, 1.0
222,0.0228,0.132,3.45,0.132,3.45,0.0295363761261865,0.0,0.9995637060664679,-0.0,1.0,0.0,1.0,1.0,1.0, 1.0
223,0.0228,0.132,3.45,0.132,3.45,0.08911872991527187,0.0,0.996021009807669,-0.0,1.0,0.0,1.0,1.0,1.0, 1.0
224,0.0228,0.132,3.45,0.132,3.45,0.1490133506239317,0.0,0.9888351841109969,-0.0,1.0,0.0,1.0,1.0,1.0, 1.0
225,0.0228,0.132,3.45,0.132,3.45,0.20894115550044356,0.0,0.977928214920778,-0.0,1.0,0.0,1.0,1.0,1.0, 1.0
226,0.0228,0.132,3.45,0.132,3.45,0.26858646537447206,0.0,0.9632555790742391,-0.0,1.0,0.0,1.0,1.0,1.0, 1.0
227,0.0228,0.132,3.45,0.132,3.45,0.3275580698706387,0.0,0.944831048845571,-0.0,1.0,0.0,1.0,1.0,1.0, 1.0
228,0.0228,0.132,3.45,0.132,3.45,0.385408573054955,0.0,0.922746027797326,-0.0,1.0,0.0,1.0,1.0,1.0, 1.0
229,0.0228,0.132,3.45,0.132,3.45,0.4416780074970463,0.0,0.8971736385413023,-0.0,1.0,0.0,1.0,1.0,1.0, 1.0
230,0.0228,0.132,3.45,0.132,3.45,0.49590921919481895,0.0,0.8683743699105733,-0.0,1.0,0.0,1.0,1.0,1.0, 1.0
231,0.0228,0.132,3.45,0.132,3.45,0.547715033799853,0.0,0.8366649519070498,-0.0,1.0,0.0,1.0,1.0,1.0, 1.0
232,0.0228,0.132,3.45,0.132,3.45,0.5967843795507286,0.0,0.8024016477576875,-0.0,1.0,0.0,1.0,1.0,1.0, 1.0
233,0.0228,0.132,3.45,0.132,3.45,0.6429765208220332,0.0,0.7658858881527937,-0.0,1.0,0.0,1.0,1.0,1.0, 1.0
234,0.0228,0.132,3.45,0.132,3.45,0.6863772367460288,0.0,0.7272456867365292,-0.0,1.0,0.0,1.0,1.0,1.0, 1.0
235,0.0228,0.132,3.45,0.132,3.45,0.029295062724273988,0.0,0.9995708075469095,-0.0,1.0,0.0,1.0,1.0,1.0, 1.0
236,0.0228,0.132,3.45,0.132,3.45,0.0884287908052595,0.0,0.9960825010794636,-0.0,1.0,0.0,1.0,1.0,1.0, 1.0
237,0.0228,0.132,3.45,0.132,3.45,0.1479111632584264,0.0,0.9890006510531422,-0.0,1.0,0.0,1.0,1.0,1.0, 1.0
238,0.0228,0.132,3.45,0.132,3.45,0.20745727258235055,0.0,0.9782440799987967,-0.0,1.0,0.0,1.0,1.0,1.0, 1.0
239,0.0228,0.132,3.45,0.132,3.45,0.2667635827645292,0.0,0.9637619991007282,-0.0,1.0,0.0,1.0,1.0,1.0, 1.0
240,0.0228,0.132,3.45,0.132,3.45,0.32546393854779987,0.0,0.9455544535905661,-0.0,1.0,0.0,1.0,1.0,1.0, 1.0
241,0.0228,0.132,3.45,0.132,3.45,0.3831360895862829,0.0,0.9236919058087126,-0.0,1.0,0.0,1.0,1.0,1.0, 1.0
242,0.0228,0.132,3.45,0.132,3.45,0.4393414940575032,0.0,0.8983201275710797,-0.0,1.0,0.0,1.0,1.0,1.0, 1.0
243,0.0228,0.132,3.45,0.132,3.45,0.49365784246503835,0.0,0.869656216313529,-0.0,1.0,0.0,1.0,1.0,1.0, 1.0
244,0.0228,0.132,3.45,0.132,3.45,0.545707149660634,0.0,0.8379759583718774,-0.0,1.0,0.0,1.0,1.0,1.0, 1.0
245,0.0228,0.132,3.45,0.132,3.45,0.5951958851448818,0.0,0.8035806482902639,-0.0,1.0,0.0,1.0,1.0,1.0, 1.0
246,0.0228,0.132,3.45,0.132,3.45,0.6419677678968702,0.0,0.7667316251345774,-0.0,1.0,0.0,1.0,1.0,1.0, 1.0
247,0.0228,0.132,3.45,0.132,3.45,0.686037609808102,0.0,0.7275660780498129,-0.0,1.0,0.0,1.0,1.0,1.0, 1.0
248,0.0228,0.132,3.45,0.132,3.45,0.029173318048375575,0.0,0.9995743681757993,-0.0,1.0,0.0,1.0,1.0,1.0, 1.0
249,0.0228,0.132,3.45,0.132,3.45,0.08806580859225384,0.0,0.9961146587401434,-0.0,1.0,0.0,1.0,1.0,1.0, 1.0
250,0.0228,0.132,3.45,0.132,3.45,0.1473077525719303,0.0,0.9890907066756855,-0.0,1.0,0.0,1.0,1.0,1.0, 1.0
251,0.0228,0.132,3.45,0.132,3.45,0.20660961025061098,0.0,0.9784234609575194,-0.0,1.0,0.0,1.0,1.0,1.0, 1.0
252,0.0228,0.132,3.45,0.132,3.45,0.26567847941087797,0.0,0.9640616917904806,-0.0,1.0,0.0,1.0,1.0,1.0, 1.0
253,0.0228,0.132,3.45,0.132,3.45,0.3241682242836127,0.0,0.945999451566865,-0.0,1.0,0.0,1.0,1.0,1.0, 1.0
254,0.0228,0.132,3.45,0.132,3.45,0.38168384400658983,0.0,0.9242929423209685,-0.0,1.0,0.0,1.0,1.0,1.0, 1.0
255,0.0228,0.132,3.45,0.132,3.45,0.43780670356057144,0.0,0.8990691243266148,-0.0,1.0,0.0,1.0,1.0,1.0, 1.0
256,0.0228,0.132,3.45,0.132,3.45,0.492147688448604,0.0,0.8705117189071585,-0.0,1.0,0.0,1.0,1.0,1.0, 1.0
257,0.0228,0.132,3.45,0.132,3.45,0.5443443611901485,0.0,0.8388618577814162,-0.0,1.0,0.0,1.0,1.0,1.0, 1.0
258,0.0228,0.132,3.45,0.132,3.45,0.5941097522759244,0.0,0.8043839893052569,-0.0,1.0,0.0,1.0,1.0,1.0, 1.0
259,0.0228,0.132,3.45,0.132,3.45,0.6412732857778733,0.0,0.7673125653523797,-0.0,1.0,0.0,1.0,1.0,1.0, 1.0
260,0.0228,0.132,3.45,0.132,3.45,0.6858033026131587,0.0,0.7277869400620517,-0.0,1.0,0.0,1.0,1.0,1.0, 1.0
261,0.0228,0.132,3.45,0.132,3.45,0.029143134594655222,0.0,0.9995752486461426,-0.0,1.0,0.0,1.0,1.0,1.0, 1.0
262,0.0228,0.132,3.45,0.132,3.45,0.0879558274810585,0.0,0.9961243759752707,-0.0,1.0,0.0,1.0,1.0,1.0, 1.0
263,0.0228,0.132,3.45,0.132,3.45,0.14708963227351024,0.0,0.9891231672939643,-0.0,1.0,0.0,1.0,1.0,1.0, 1.0
264,0.0228,0.132,3.45,0.132,3.45,0.2062501751615539,0.0,0.9784992924094674,-0.0,1.0,0.0,1.0,1.0,1.0, 1.0
265,0.0228,0.132,3.45,0.132,3.45,0.2651524811886799,0.0,0.9642064932987574,-0.0,1.0,0.0,1.0,1.0,1.0, 1.0
266,0.0228,0.132,3.45,0.132,3.45,0.3234691335341951,0.0,0.9462387223373586,-0.0,1.0,0.0,1.0,1.0,1.0, 1.0
267,0.0228,0.132,3.45,0.132,3.45,0.38083045764190493,0.0,0.9246448845542039,-0.0,1.0,0.0,1.0,1.0,1.0, 1.0
268,0.0228,0.132,3.45,0.132,3.45,0.43685375402971677,0.0,0.8995325439305372,-0.0,1.0,0.0,1.0,1.0,1.0, 1.0
269,0.0228,0.132,3.45,0.132,3.45,0.49117232746410955,0.0,0.8710624229832725,-0.0,1.0,0.0,1.0,1.0,1.0, 1.0
270,0.0228,0.132,3.45,0.132,3.45,0.5434312093833135,0.0,0.8394537037074704,-0.0,1.0,0.0,1.0,1.0,1.0, 1.0
271,0.0228,0.132,3.45,0.132,3.45,0.5933627890784597,0.0,0.8049351530011788,-0.0,1.0,0.0,1.0,1.0,1.0, 1.0
272,0.0228,0.132,3.45,0.132,3.45,0.6407869202724518,0.0,0.7677187784649706,-0.0,1.0,0.0,1.0,1.0,1.0, 1.0
273,0.0228,0.132,3.45,0.132,3.45,0.6856379475725797,0.0,0.727942720856841,-0.0,1.0,0.0,1.0,1.0,1.0, 1.0
274,0.0228,0.132,3.45,0.132,3.45,0.029185588012653717,0.0,0.9995740099924344,-0.0,1.0,0.0,1.0,1.0,1.0, 1.0
275,0.0228,0.132,3.45,0.132,3.45,0.08805091758127621,0.0,0.9961159751319599,-0.0,1.0,0.0,1.0,1.0,1.0, 1.0
276,0.0228,0.132,3.45,0.132,3.45,0.14718275218618357,0.0,0.9891093152219831,-0.0,1.0,0.0,1.0,1.0,1.0, 1.0
277,0.0228,0.132,3.45,0.132,3.45,0.2062829722811385,0.0,0.9784923787883373,-0.0,1.0,0.0,1.0,1.0,1.0, 1.0
278,0.0228,0.132,3.45,0.132,3.45,0.26507121031890163,0.0,0.9642288387411324,-0.0,1.0,0.0,1.0,1.0,1.0, 1.0
279,0.0228,0.132,3.45,0.132,3.45,0.3232400397289626,0.0,0.9463170064603187,-0.0,1.0,0.0,1.0,1.0,1.0, 1.0
280,0.0228,0.132,3.45,0.132,3.45,0.3804509863664787,0.0,0.9248010850841242,-0.0,1.0,0.0,1.0,1.0,1.0, 1.0
281,0.0228,0.132,3.45,0.132,3.45,0.43635207182429786,0.0,0.8997760106907956,-0.0,1.0,0.0,1.0,1.0,1.0, 1.0
282,0.0228,0.132,3.45,0.132,3.45,0.490592423656534,0.0,0.8713891632622062,-0.0,1.0,0.0,1.0,1.0,1.0, 1.0
283,0.0228,0.132,3.45,0.132,3.45,0.5428519931197765,0.0,0.8398283834009698,-0.0,1.0,0.0,1.0,1.0,1.0, 1.0
284,0.0228,0.132,3.45,0.132,3.45,0.5928754329727741,0.0,0.805294182878124,-0.0,1.0,0.0,1.0,1.0,1.0, 1.0
285,0.0228,0.132,3.45,0.132,3.45,0.6404653870486176,0.0,0.767987036344146,-0.0,1.0,0.0,1.0,1.0,1.0, 1.0
286,0.0228,0.132,3.45,0.132,3.45,0.6855295107230528,0.0,0.7280448406024259,-0.0,1.0,0.0,1.0,1.0,1.0, 1.0
287,0.0228,0.132,3.45,0.132,3.45,0.02928967384375677,0.0,0.9995709654677483,-0.0,1.0,0.0,1.0,1.0,1.0, 1.0
288,0.0228,0.132,3.45,0.132,3.45,0.08832087083264924,0.0,0.9960920759525007,-0.0,1.0,0.0,1.0,1.0,1.0, 1.0
289,0.0228,0.132,3.45,0.132,3.45,0.1475411276713538,0.0,0.9890559213944707,-0.0,1.0,0.0,1.0,1.0,1.0, 1.0
290,0.0228,0.132,3.45,0.132,3.45,0.2066457033984878,0.0,0.9784158386222824,-0.0,1.0,0.0,1.0,1.0,1.0, 1.0
291,0.0228,0.132,3.45,0.132,3.45,0.2653629931543468,0.0,0.9641485787284895,-0.0,1.0,0.0,1.0,1.0,1.0, 1.0
292,0.0228,0.132,3.45,0.132,3.45,0.3234042384251045,0.0,0.9462609040685757,-0.0,1.0,0.0,1.0,1.0,1.0, 1.0
293,0.0228,0.132,3.45,0.132,3.45,0.3804627099808009,0.0,0.9247962620567111,-0.0,1.0,0.0,1.0,1.0,1.0, 1.0
294,0.0228,0.132,3.45,0.132,3.45,0.43621386459647143,0.0,0.8998430220509638,-0.0,1.0,0.0,1.0,1.0,1.0, 1.0
295,0.0228,0.132,3.45,0.132,3.45,0.49033648785919576,0.0,0.8715332057207624,-0.0,1.0,0.0,1.0,1.0,1.0, 1.0
296,0.0228,0.132,3.45,0.132,3.45,0.5425450886874413,0.0,0.8400266821602373,-0.0,1.0,0.0,1.0,1.0,1.0, 1.0
297,0.0228,0.132,3.45,0.132,3.45,0.592589427780662,0.0,0.8055046679458707,-0.0,1.0,0.0,1.0,1.0,1.0, 1.0
298,0.0228,0.132,3.45,0.132,3.45,0.6402644309925565,0.0,0.7681545797596848,-0.0,1.0,0.0,1.0,1.0,1.0, 1.0
299,0.0228,0.132,3.45,0.132,3.45,0.6854595582154117,0.0,0.7281107017831373,-0.0,1.0,0.0,1.0,1.0,1.0, 1.0
300,0.0228,0.132,3.45,0.132,3.45,0.029455376347017732,0.0,0.9995660962659025,-0.0,1.0,0.0,1.0,1.0,1.0, 1.0
301,0.0228,0.132,3.45,0.132,3.45,0.08875384741238196,0.0,0.996053590209633,-0.0,1.0,0.0,1.0,1.0,1.0, 1.0
302,0.0228,0.132,3.45,0.132,3.45,0.14813823985500416,0.0,0.9889666636912801,-0.0,1.0,0.0,1.0,1.0,1.0, 1.0
303,0.0228,0.132,3.45,0.132,3.45,0.20729836289908615,0.0,0.9782777666590194,-0.0,1.0,0.0,1.0,1.0,1.0, 1.0
304,0.0228,0.132,3.45,0.132,3.45,0.2659757716281779,0.0,0.9639797139498296,-0.0,1.0,0.0,1.0,1.0,1.0, 1.0
305,0.0228,0.132,3.45,0.132,3.45,0.32390415677889084,0.0,0.9460898991223592,-0.0,1.0,0.0,1.0,1.0,1.0, 1.0
306,0.0228,0.132,3.45,0.132,3.45,0.3808031765660139,0.0,0.9246561202507845,-0.0,1.0,0.0,1.0,1.0,1.0, 1.0
307,0.0228,0.132,3.45,0.132,3.45,0.4363856530344297,0.0,0.8997597244963313,-0.0,1.0,0.0,1.0,1.0,1.0, 1.0
308,0.0228,0.132,3.45,0.132,3.45,0.49036595136134215,0.0,0.8715166284962587,-0.0,1.0,0.0,1.0,1.0,1.0, 1.0
309,0.0228,0.132,3.45,0.132,3.45,0.5424719023870533,0.0,0.8400739462217427,-0.0,1.0,0.0,1.0,1.0,1.0, 1.0
310,0.0228,0.132,3.45,0.132,3.45,0.5924703323845143,0.0,0.8055922698513082,-0.0,1.0,0.0,1.0,1.0,1.0, 1.0
311,0.0228,0.132,3.45,0.132,3.45,0.6401659089020254,0.0,0.7682366881890267,-0.0,1.0,0.0,1.0,1.0,1.0, 1.0
312,0.0228,0.132,3.45,0.132,3.45,0.6854229998908002,0.0,0.7281451168693613,-0.0,1.0,0.0,1.0,1.0,1.0, 1.0
313,0.0228,0.132,3.45,0.132,3.45,0.02969074176078613,0.0,0.9995591327448788,-0.0,1.0,0.0,1.0,1.0,1.0, 1.0
314,0.0228,0.132,3.45,0.132,3.45,0.0893465920991479,0.0,0.9960005956224467,-0.0,1.0,0.0,1.0,1.0,1.0, 1.0
315,0.0228,0.132,3.45,0.132,3.45,0.14894860554284614,0.0,0.9888449387577617,-0.0,1.0,0.0,1.0,1.0,1.0, 1.0
316,0.0228,0.132,3.45,0.132,3.45,0.2082013903857224,0.0,0.9780859783482494,-0.0,1.0,0.0,1.0,1.0,1.0, 1.0
317,0.0228,0.132,3.45,0.132,3.45,0.26686165471698853,0.0,0.9637348479959157,-0.0,1.0,0.0,1.0,1.0,1.0, 1.0
318,0.0228,0.132,3.45,0.132,3.45,0.32468387213764716,0.0,0.9458225960367536,-0.0,1.0,0.0,1.0,1.0,1.0, 1.0
319,0.0228,0.132,3.45,0.132,3.45,0.3814208938590879,0.0,0.924401482975733,-0.0,1.0,0.0,1.0,1.0,1.0, 1.0
320,0.0228,0.132,3.45,0.132,3.45,0.43681755576237885,0.0,0.8995501225489223,-0.0,1.0,0.0,1.0,1.0,1.0, 1.0
321,0.0228,0.132,3.45,0.132,3.45,0.4906174573769869,0.0,0.8713750687946841,-0.0,1.0,0.0,1.0,1.0,1.0, 1.0
322,0.0228,0.132,3.45,0.132,3.45,0.5425793010619895,0.0,0.8400045845464672,-0.0,1.0,0.0,1.0,1.0,1.0, 1.0
323,0.0228,0.132,3.45,0.132,3.45,0.5924851169785322,0.0,0.8055813963585151,-0.0,1.0,0.0,1.0,1.0,1.0, 1.0
324,0.0228,0.132,3.45,0.132,3.45,0.6401487763969,0.0,0.7682509642542283,-0.0,1.0,0.0,1.0,1.0,1.0, 1.0
325,0.0228,0.132,3.45,0.132,3.45,0.6854140205949512,0.0,0.7281535692227732,-0.0,1.0,0.0,1.0,1.0,1.0, 1.0
326,0.0228,0.132,3.45,0.132,3.45,0.03001403284929282,0.0,0.999549477430768,-0.0,1.0,0.0,1.0,1.0,1.0, 1.0
327,0.0228,0.132,3.45,0.132,3.45,0.09008938952496993,0.0,0.9959336834824988,-0.0,1.0,0.0,1.0,1.0,1.0, 1.0
328,0.0228,0.132,3.45,0.132,3.45,0.149932512851349,0.0,0.9886962332233699,-0.0,1.0,0.0,1.0,1.0,1.0, 1.0
329,0.0228,0.132,3.45,0.132,3.45,0.20929424170673114,0.0,0.9778527089436345,-0.0,1.0,0.0,1.0,1.0,1.0, 1.0
330,0.0228,0.132,3.45,0.132,3.45,0.26794853075959146,0.0,0.9634332280255733,-0.0,1.0,0.0,1.0,1.0,1.0, 1.0
331,0.0228,0.132,3.45,0.132,3.45,0.32566828756069616,0.0,0.9454840910757217,-0.0,1.0,0.0,1.0,1.0,1.0, 1.0
332,0.0228,0.132,3.45,0.132,3.45,0.3822389899183745,0.0,0.9240635013819021,-0.0,1.0,0.0,1.0,1.0,1.0, 1.0
333,0.0228,0.132,3.45,0.132,3.45,0.4374278403505551,0.0,0.8992535151369992,-0.0,1.0,0.0,1.0,1.0,1.0, 1.0
334,0.0228,0.132,3.45,0.132,3.45,0.4910183032792465,0.0,0.8711492557792665,-0.0,1.0,0.0,1.0,1.0,1.0, 1.0
335,0.0228,0.132,3.45,0.132,3.45,0.5428075852042926,0.0,0.839857086321646,-0.0,1.0,0.0,1.0,1.0,1.0, 1.0
336,0.0228,0.132,3.45,0.132,3.45,0.5925885172692151,0.0,0.8055053377853391,-0.0,1.0,0.0,1.0,1.0,1.0, 1.0
337,0.0228,0.132,3.45,0.132,3.45,0.6401855408005704,0.0,0.7682203286491975,-0.0,1.0,0.0,1.0,1.0,1.0, 1.0
338,0.0228,0.132,3.45,0.132,3.45,0.6854238695251248,0.0,0.7281442982577044,-0.0,1.0,0.0,1.0,1.0,1.0, 1.0
339,0.0228,0.132,3.45,0.132,3.45,0.03326045908448389,0.0,0.9994467178701871,-0.0,1.0,0.0,1.0,1.0,1.0, 1.0
340,0.0228,0.132,3.45,0.132,3.45,0.09980833115385651,0.0,0.9950066819033337,-0.0,1.0,0.0,1.0,1.0,1.0, 1.0
341,0.0228,0.132,3.45,0.132,3.45,0.16597903585703566,0.0,0.9861292814108953,-0.0,1.0,0.0,1.0,1.0,1.0, 1.0
342,0.0228,0.132,3.45,0.132,3.45,0.23138288745027438,0.0,0.9728627649340751,-0.0,1.0,0.0,1.0,1.0,1.0, 1.0
343,0.0228,0.132,3.45,0.132,3.45,0.2955485162468064,0.0,0.9553277314850183,-0.0,1.0,0.0,1.0,1.0,1.0, 1.0
344,0.0228,0.132,3.45,0.132,3.45,0.35792260529938275,0.0,0.9337512562860102,-0.0,1.0,0.0,1.0,1.0,1.0, 1.0
345,0.0228,0.132,3.45,0.132,3.45,0.4179352840365776,0.0,0.908476801221289,-0.0,1.0,0.0,1.0,1.0,1.0, 1.0
346,0.0228,0.132,3.45,0.132,3.45,0.4750266547866665,0.0,0.8799714070594504,-0.0,1.0,0.0,1.0,1.0,1.0, 1.0
347,0.0228,0.132,3.45,0.132,3.45,0.5286579043317959,0.0,0.8488349781833414,-0.0,1.0,0.0,1.0,1.0,1.0, 1.0
348,0.0228,0.132,3.45,0.132,3.45,0.5782604582594727,0.0,0.8158522184890745,-0.0,1.0,0.0,1.0,1.0,1.0, 1.0
349,0.0228,0.132,3.45,0.132,3.45,0.6231097519215982,0.0,0.7821344111213904,-0.0,1.0,0.0,1.0,1.0,1.0, 1.0
350,0.0228,0.132,3.45,0.132,3.45,0.6621096024761914,0.0,0.7494070151185,-0.0,1.0,0.0,1.0,1.0,1.0, 1.0
351,0.0228,0.132,3.45,0.132,3.45,0.6936026184739991,0.0,0.7203578330566082,-0.0,1.0,0.0,1.0,1.0,1.0, 1.0
352,0.0228,0.132,3.45,0.132,3.45,0.03167876740621394,0.0,0.9994981018969586,-0.0,1.0,0.0,1.0,1.0,1.0, 1.0
353,0.0228,0.132,3.45,0.132,3.45,0.09520917677096306,0.0,0.995457288214113,-0.0,1.0,0.0,1.0,1.0,1.0, 1.0
354,0.0228,0.132,3.45,0.132,3.45,0.15863762221838626,0.0,0.9873368750415923,-0.0,1.0,0.0,1.0,1.0,1.0, 1.0
355,0.0228,0.132,3.45,0.132,3.45,0.22165110940336716,0.0,0.9751260358026836,-0.0,1.0,0.0,1.0,1.0,1.0, 1.0
356,0.0228,0.132,3.45,0.132,3.45,0.2838454546734114,0.0,0.9588700422170067,-0.0,1.0,0.0,1.0,1.0,1.0, 1.0
357,0.0228,0.132,3.45,0.132,3.45,0.34472416924484417,0.0,0.938704025312799,-0.0,1.0,0.0,1.0,1.0,1.0, 1.0
358,0.0228,0.132,3.45,0.132,3.45,0.4037496088256932,0.0,0.9148695280602037,-0.0,1.0,0.0,1.0,1.0,1.0, 1.0
359,0.0228,0.132,3.45,0.132,3.45,0.4603728090718972,0.0,0.8877256764717637,-0.0,1.0,0.0,1.0,1.0,1.0, 1.0
360,0.0228,0.132,3.45,0.132,3.45,0.5140690347182622,0.0,0.8577488137816538,-0.0,1.0,0.0,1.0,1.0,1.0, 1.0
361,0.0228,0.132,3.45,0.132,3.45,0.5643269292731921,0.0,0.8255514017292259,-0.0,1.0,0.0,1.0,1.0,1.0, 1.0
362,0.0228,0.132,3.45,0.132,3.45,0.6106326177969023,0.0,0.791914014323842,-0.0,1.0,0.0,1.0,1.0,1.0, 1.0
363,0.0228,0.132,3.45,0.132,3.45,0.652498455503953,0.0,0.757790053751668,-0.0,1.0,0.0,1.0,1.0,1.0, 1.0
364,0.0228,0.132,3.45,0.132,3.45,0.6897877020330085,0.0,0.7240116892178062,-0.0,1.0,0.0,1.0,1.0,1.0, 1.0
365,0.0228,0.132,3.45,0.132,3.45,0.03068342934572265,0.0,0.9995291527332187,-0.0,1.0,0.0,1.0,1.0,1.0, 1.0
366,0.0228,0.132,3.45,0.132,3.45,0.09234653854854089,0.0,0.9957269288404843,-0.0,1.0,0.0,1.0,1.0,1.0, 1.0
367,0.0228,0.132,3.45,0.132,3.45,0.15409043135414735,0.0,0.9880567488586336,-0.0,1.0,0.0,1.0,1.0,1.0, 1.0
368,0.0228,0.132,3.45,0.132,3.45,0.21563664192278767,0.0,0.9764736753544683,-0.0,1.0,0.0,1.0,1.0,1.0, 1.0
369,0.0228,0.132,3.45,0.132,3.45,0.2766248708388504,0.0,0.9609779814508704,-0.0,1.0,0.0,1.0,1.0,1.0, 1.0
370,0.0228,0.132,3.45,0.132,3.45,0.3365972835820628,0.0,0.941648697065512,-0.0,1.0,0.0,1.0,1.0,1.0, 1.0
371,0.0228,0.132,3.45,0.132,3.45,0.39504505851928917,0.0,0.9186617450071008,-0.0,1.0,0.0,1.0,1.0,1.0, 1.0
372,0.0228,0.132,3.45,0.132,3.45,0.45143862001778007,0.0,0.8923021754744533,-0.0,1.0,0.0,1.0,1.0,1.0, 1.0
373,0.0228,0.132,3.45,0.132,3.45,0.50529024825369,0.0,0.8629494568164027,-0.0,1.0,0.0,1.0,1.0,1.0, 1.0
374,0.0228,0.132,3.45,0.132,3.45,0.5561427248391048,0.0,0.8310868002853468,-0.0,1.0,0.0,1.0,1.0,1.0, 1.0
375,0.0228,0.132,3.45,0.132,3.45,0.6036115259131584,0.0,0.797278574768436,-0.0,1.0,0.0,1.0,1.0,1.0, 1.0
376,0.0228,0.132,3.45,0.132,3.45,0.6474970563306671,0.0,0.7620679510667804,-0.0,1.0,0.0,1.0,1.0,1.0, 1.0
377,0.0228,0.132,3.45,0.132,3.45,0.6879452103756118,0.0,0.7257626247756598,-0.0,1.0,0.0,1.0,1.0,1.0, 1.0
378,0.0228,0.132,3.45,0.132,3.45,0.03004699073969778,0.0,0.9995484872418587,-0.0,1.0,0.0,1.0,1.0,1.0, 1.0
379,0.0228,0.132,3.45,0.132,3.45,0.09053840818553885,0.0,0.9958929644511145,-0.0,1.0,0.0,1.0,1.0,1.0, 1.0
380,0.0228,0.132,3.45,0.132,3.45,0.15123497016210036,0.0,0.9884978420816448,-0.0,1.0,0.0,1.0,1.0,1.0, 1.0
381,0.0228,0.132,3.45,0.132,3.45,0.21186924315909458,0.0,0.9772980219990177,-0.0,1.0,0.0,1.0,1.0,1.0, 1.0
382,0.0228,0.132,3.45,0.132,3.45,0.2721060197019366,0.0,0.9622672778609742,-0.0,1.0,0.0,1.0,1.0,1.0, 1.0
383,0.0228,0.132,3.45,0.132,3.45,0.3315183324403183,0.0,0.9434487772295804,-0.0,1.0,0.0,1.0,1.0,1.0, 1.0
384,0.0228,0.132,3.45,0.132,3.45,0.38962418353200307,0.0,0.920973938614454,-0.0,1.0,0.0,1.0,1.0,1.0, 1.0
385,0.0228,0.132,3.45,0.132,3.45,0.44592865763612094,0.0,0.8950685070422527,-0.0,1.0,0.0,1.0,1.0,1.0, 1.0
386,0.0228,0.132,3.45,0.132,3.45,0.4999606023365739,0.0,0.8660481488411889,-0.0,1.0,0.0,1.0,1.0,1.0, 1.0
387,0.0228,0.132,3.45,0.132,3.45,0.5513019203271258,0.0,0.8343058148206949,-0.0,1.0,0.0,1.0,1.0,1.0, 1.0
388,0.0228,0.132,3.45,0.132,3.45,0.5996289146058636,0.0,0.8002781796154347,-0.0,1.0,0.0,1.0,1.0,1.0, 1.0
389,0.0228,0.132,3.45,0.132,3.45,0.6448121766216883,0.0,0.7643410605746629,-0.0,1.0,0.0,1.0,1.0,1.0, 1.0
390,0.0228,0.132,3.45,0.132,3.45,0.6870019345900703,0.0,0.7266555868287954,-0.0,1.0,0.0,1.0,1.0,1.0, 1.0
391,0.0228,0.132,3.45,0.132,3.45,0.029629429002528844,0.0,0.9995609520869572,-0.0,1.0,0.0,1.0,1.0,1.0, 1.0
392,0.0228,0.132,3.45,0.132,3.45,0.08936135885248962,0.0,0.9959992708551731,-0.0,1.0,0.0,1.0,1.0,1.0, 1.0
393,0.0228,0.132,3.45,0.132,3.45,0.14937821852952057,0.0,0.988780131186376,-0.0,1.0,0.0,1.0,1.0,1.0, 1.0
394,0.0228,0.132,3.45,0.132,3.45,0.20941280723030026,0.0,0.9778273243103432,-0.0,1.0,0.0,1.0,1.0,1.0, 1.0
395,0.0228,0.132,3.45,0.132,3.45,0.26914859093017846,0.0,0.9630986636893956,-0.0,1.0,0.0,1.0,1.0,1.0, 1.0
396,0.0228,0.132,3.45,0.132,3.45,0.32818199126356096,0.0,0.9446145142915622,-0.0,1.0,0.0,1.0,1.0,1.0, 1.0
397,0.0228,0.132,3.45,0.132,3.45,0.3860576811395702,0.0,0.9224746429214942,-0.0,1.0,0.0,1.0,1.0,1.0, 1.0
398,0.0228,0.132,3.45,0.132,3.45,0.44231556561471636,0.0,0.8968594875536154,-0.0,1.0,0.0,1.0,1.0,1.0, 1.0
399,0.0228,0.132,3.45,0.132,3.45,0.4965019493127686,0.0,0.8680356066018382,-0.0,1.0,0.0,1.0,1.0,1.0, 1.0
400,0.0228,0.132,3.45,0.132,3.45,0.5482187892950008,0.0,0.8363349562609012,-0.0,1.0,0.0,1.0,1.0,1.0, 1.0
401,0.0228,0.132,3.45,0.132,3.45,0.5971663624740607,0.0,0.8021174075716713,-0.0,1.0,0.0,1.0,1.0,1.0, 1.0
402,0.0228,0.132,3.45,0.132,3.45,0.6432152059363663,0.0,0.765685443803288,-0.0,1.0,0.0,1.0,1.0,1.0, 1.0
403,0.0228,0.132,3.45,0.132,3.45,0.686455237237407,0.0,0.7271720616672064,-0.0,1.0,0.0,1.0,1.0,1.0, 1.0
404,0.0228,0.132,3.45,0.132,3.45,0.02936452608907061,0.0,0.9995687693238341,-0.0,1.0,0.0,1.0,1.0,1.0, 1.0
405,0.0228,0.132,3.45,0.132,3.45,0.0886095296290365,0.0,0.9960664391790945,-0.0,1.0,0.0,1.0,1.0,1.0, 1.0
406,0.0228,0.132,3.45,0.132,3.45,0.14818154714001064,0.0,0.9889601756831226,-0.0,1.0,0.0,1.0,1.0,1.0, 1.0
407,0.0228,0.132,3.45,0.132,3.45,0.20780953216286804,0.0,0.9781693096505583,-0.0,1.0,0.0,1.0,1.0,1.0, 1.0
408,0.0228,0.132,3.45,0.132,3.45,0.26718835984550976,0.0,0.9636443225397359,-0.0,1.0,0.0,1.0,1.0,1.0, 1.0
409,0.0228,0.132,3.45,0.132,3.45,0.3259415882598402,0.0,0.9453899095307993,-0.0,1.0,0.0,1.0,1.0,1.0, 1.0
410,0.0228,0.132,3.45,0.132,3.45,0.3836402677522991,0.0,0.92348261757271,-0.0,1.0,0.0,1.0,1.0,1.0, 1.0
411,0.0228,0.132,3.45,0.132,3.45,0.4398417453304897,0.0,0.8980752969905299,-0.0,1.0,0.0,1.0,1.0,1.0, 1.0
412,0.0228,0.132,3.45,0.132,3.45,0.4941290262650729,0.0,0.8693885813618276,-0.0,1.0,0.0,1.0,1.0,1.0, 1.0
413,0.0228,0.132,3.45,0.132,3.45,0.5461122488086254,0.0,0.8377120100017583,-0.0,1.0,0.0,1.0,1.0,1.0, 1.0
414,0.0228,0.132,3.45,0.132,3.45,0.595506220554236,0.0,0.8033506963221043,-0.0,1.0,0.0,1.0,1.0,1.0, 1.0
415,0.0228,0.132,3.45,0.132,3.45,0.6421639216500088,0.0,0.7665673471594531,-0.0,1.0,0.0,1.0,1.0,1.0, 1.0
416,0.0228,0.132,3.45,0.132,3.45,0.686102324883031,0.0,0.7275050513845933,-0.0,1.0,0.0,1.0,1.0,1.0, 1.0
417,0.0228,0.132,3.45,0.132,3.45,0.029219808456720356,0.0,0.9995730102367475,-0.0,1.0,0.0,1.0,1.0,1.0, 1.0
418,0.0228,0.132,3.45,0.132,3.45,0.08818369951547235,0.0,0.9961042290542514,-0.0,1.0,0.0,1.0,1.0,1.0, 1.0
419,0.0228,0.132,3.45,0.132,3.45,0.1474821373923435,0.0,0.9890647193941282,-0.0,1.0,0.0,1.0,1.0,1.0, 1.0
420,0.0228,0.132,3.45,0.132,3.45,0.2068383186103333,0.0,0.9783751376412068,-0.0,1.0,0.0,1.0,1.0,1.0, 1.0
421,0.0228,0.132,3.45,0.132,3.45,0.2659582963206316,0.0,0.9639845354663253,-0.0,1.0,0.0,1.0,1.0,1.0, 1.0
422,0.0228,0.132,3.45,0.132,3.45,0.32449065136488275,0.0,0.9458889031893725,-0.0,1.0,0.0,1.0,1.0,1.0, 1.0
423,0.0228,0.132,3.45,0.132,3.45,0.3820308267029302,0.0,0.924149580667911,-0.0,1.0,0.0,1.0,1.0,1.0, 1.0
424,0.0228,0.132,3.45,0.132,3.45,0.438161297930982,0.0,0.8988963661042564,-0.0,1.0,0.0,1.0,1.0,1.0, 1.0
425,0.0228,0.132,3.45,0.132,3.45,0.49248972553565995,0.0,0.8703182580193353,-0.0,1.0,0.0,1.0,1.0,1.0, 1.0
426,0.0228,0.132,3.45,0.132,3.45,0.5446431077209347,0.0,0.8386679230852234,-0.0,1.0,0.0,1.0,1.0,1.0, 1.0
427,0.0228,0.132,3.45,0.132,3.45,0.5943435051153088,0.0,0.8042112893557569,-0.0,1.0,0.0,1.0,1.0,1.0, 1.0
428,0.0228,0.132,3.45,0.132,3.45,0.6414224911020174,0.0,0.767187843952498,-0.0,1.0,0.0,1.0,1.0,1.0, 1.0
429,0.0228,0.132,3.45,0.132,3.45,0.6858533194616799,0.0,0.7277398052761678,-0.0,1.0,0.0,1.0,1.0,1.0, 1.0
430,0.0228,0.132,3.45,0.132,3.45,0.029171561824848424,0.0,0.9995744194309392,-0.0,1.0,0.0,1.0,1.0,1.0, 1.0
431,0.0228,0.132,3.45,0.132,3.45,0.08802267382431266,0.0,0.9961184713139389,-0.0,1.0,0.0,1.0,1.0,1.0, 1.0
432,0.0228,0.132,3.45,0.132,3.45,0.1471853636739987,0.0,0.9891089266203964,-0.0,1.0,0.0,1.0,1.0,1.0, 1.0
433,0.0228,0.132,3.45,0.132,3.45,0.20637628428944177,0.0,0.9784727023698125,-0.0,1.0,0.0,1.0,1.0,1.0, 1.0
434,0.0228,0.132,3.45,0.132,3.45,0.2653107265053099,0.0,0.9641629625749087,-0.0,1.0,0.0,1.0,1.0,1.0, 1.0
435,0.0228,0.132,3.45,0.132,3.45,0.32365899774859447,0.0,0.9461737964963811,-0.0,1.0,0.0,1.0,1.0,1.0, 1.0
436,0.0228,0.132,3.45,0.132,3.45,0.3810462322153827,0.0,0.9245559847377879,-0.0,1.0,0.0,1.0,1.0,1.0, 1.0
437,0.0228,0.132,3.45,0.132,3.45,0.4370802141062497,0.0,0.8994225294247609,-0.0,1.0,0.0,1.0,1.0,1.0, 1.0
438,0.0228,0.132,3.45,0.132,3.45,0.49139001316053443,0.0,0.870939639106,-0.0,1.0,0.0,1.0,1.0,1.0, 1.0
439,0.0228,0.132,3.45,0.132,3.45,0.543631090701702,0.0,0.8393242741768392,-0.0,1.0,0.0,1.0,1.0,1.0, 1.0
440,0.0228,0.132,3.45,0.132,3.45,0.5935239875651469,0.0,0.8048162996515212,-0.0,1.0,0.0,1.0,1.0,1.0, 1.0
441,0.0228,0.132,3.45,0.132,3.45,0.6408921352208877,0.0,0.7676309471432294,-0.0,1.0,0.0,1.0,1.0,1.0, 1.0
442,0.0228,0.132,3.45,0.132,3.45,0.6856761750968283,0.0,0.7279067130509127,-0.0,1.0,0.0,1.0,1.0,1.0, 1.0
443,0.0228,0.132,3.45,0.132,3.45,0.029200946687378694,0.0,0.999573561431354,-0.0,1.0,0.0,1.0,1.0,1.0, 1.0
444,0.0228,0.132,3.45,0.132,3.45,0.08808125069905214,0.0,0.996113293393523,-0.0,1.0,0.0,1.0,1.0,1.0, 1.0
445,0.0228,0.132,3.45,0.132,3.45,0.14722264679736355,0.0,0.9891033779489274,-0.0,1.0,0.0,1.0,1.0,1.0, 1.0
446,0.0228,0.132,3.45,0.132,3.45,0.20633629572167647,0.0,0.978481135775165,-0.0,1.0,0.0,1.0,1.0,1.0, 1.0
447,0.0228,0.132,3.45,0.132,3.45,0.26514425639273703,0.0,0.9642087550431923,-0.0,1.0,0.0,1.0,1.0,1.0, 1.0
448,0.0228,0.132,3.45,0.132,3.45,0.3233350671885489,0.0,0.9462845419461192,-0.0,1.0,0.0,1.0,1.0,1.0, 1.0
449,0.0228,0.132,3.45,0.132,3.45,0.3805651575889936,0.0,0.9247541083062375,-0.0,1.0,0.0,1.0,1.0,1.0, 1.0
450,0.0228,0.132,3.45,0.132,3.45,0.4364779366510883,0.0,0.8997149608719468,-0.0,1.0,0.0,1.0,1.0,1.0, 1.0
451,0.0228,0.132,3.45,0.132,3.45,0.49071831164575497,0.0,0.8713182763006523,-0.0,1.0,0.0,1.0,1.0,1.0, 1.0
452,0.0228,0.132,3.45,0.132,3.45,0.5429702965283779,0.0,0.8397519021043569,-0.0,1.0,0.0,1.0,1.0,1.0, 1.0
453,0.0228,0.132,3.45,0.132,3.45,0.5929706251716517,0.0,0.8052240915940981,-0.0,1.0,0.0,1.0,1.0,1.0, 1.0
454,0.0228,0.132,3.45,0.132,3.45,0.6405258733200959,0.0,0.7679365895746396,-0.0,1.0,0.0,1.0,1.0,1.0, 1.0
455,0.0228,0.132,3.45,0.132,3.45,0.685550722483949,0.0,0.7280248669528642,-0.0,1.0,0.0,1.0,1.0,1.0, 1.0
456,0.0228,0.132,3.45,0.132,3.45,0.029297207198931304,0.0,0.999570744695113,-0.0,1.0,0.0,1.0,1.0,1.0, 1.0
457,0.0228,0.132,3.45,0.132,3.45,0.08832886586255734,0.0,0.9960913670218382,-0.0,1.0,0.0,1.0,1.0,1.0, 1.0
458,0.0228,0.132,3.45,0.132,3.45,0.1475457930006533,0.0,0.9890552254388065,-0.0,1.0,0.0,1.0,1.0,1.0, 1.0
459,0.0228,0.132,3.45,0.132,3.45,0.2066516816254026,0.0,0.9784145759755387,-0.0,1.0,0.0,1.0,1.0,1.0, 1.0
460,0.0228,0.132,3.45,0.132,3.45,0.2653792512935658,0.0,0.9641441038469645,-0.0,1.0,0.0,1.0,1.0,1.0, 1.0
461,0.0228,0.132,3.45,0.132,3.45,0.32343658687013815,0.0,0.9462498477008044,-0.0,1.0,0.0,1.0,1.0,1.0, 1.0
462,0.0228,0.132,3.45,0.132,3.45,0.38050644844092457,0.0,0.9247782667725674,-0.0,1.0,0.0,1.0,1.0,1.0, 1.0
463,0.0228,0.132,3.45,0.132,3.45,0.43626964588868367,0.0,0.8998159790069092,-0.0,1.0,0.0,1.0,1.0,1.0, 1.0
464,0.0228,0.132,3.45,0.132,3.45,0.49040229639731925,0.0,0.8714961776670256,-0.0,1.0,0.0,1.0,1.0,1.0, 1.0
465,0.0228,0.132,3.45,0.132,3.45,0.5426050474468668,0.0,0.8399879537738524,-0.0,1.0,0.0,1.0,1.0,1.0, 1.0
466,0.0228,0.132,3.45,0.132,3.45,0.5926371929989183,0.0,0.8054695260991335,-0.0,1.0,0.0,1.0,1.0,1.0, 1.0
467,0.0228,0.132,3.45,0.132,3.45,0.6402948361845046,0.0,0.7681292357119722,-0.0,1.0,0.0,1.0,1.0,1.0, 1.0
468,0.0228,0.132,3.45,0.132,3.45,0.6854683680930368,0.0,0.7281024078684734,-0.0,1.0,0.0,1.0,1.0,1.0, 1.0
469,0.0228,0.132,3.45,0.132,3.45,0.02945843234565951,0.0,0.9995660062065618,-0.0,1.0,0.0,1.0,1.0,1.0, 1.0
470,0.0228,0.132,3.45,0.132,3.45,0.08874993668889937,0.0,0.9960539386688436,-0.0,1.0,0.0,1.0,1.0,1.0, 1.0
471,0.0228,0.132,3.45,0.132,3.45,0.14812452260269104,0.0,0.988968718314045,-0.0,1.0,0.0,1.0,1.0,1.0, 1.0
472,0.0228,0.132,3.45,0.132,3.45,0.2072799451514926,0.0,0.9782816692231303,-0.0,1.0,0.0,1.0,1.0,1.0, 1.0
473,0.0228,0.132,3.45,0.132,3.45,0.2659603027862686,0.0,0.9639839818906931,-0.0,1.0,0.0,1.0,1.0,1.0, 1.0
474,0.0228,0.132,3.45,0.132,3.45,0.32390021553033466,0.0,0.9460912484424547,-0.0,1.0,0.0,1.0,1.0,1.0, 1.0
475,0.0228,0.132,3.45,0.132,3.45,0.38081146619547784,0.0,0.9246527062708736,-0.0,1.0,0.0,1.0,1.0,1.0, 1.0
476,0.0228,0.132,3.45,0.132,3.45,0.43640283216075126,0.0,0.8997513923757355,-0.0,1.0,0.0,1.0,1.0,1.0, 1.0
477,0.0228,0.132,3.45,0.132,3.45,0.490385936043847,0.0,0.8715053836496939,-0.0,1.0,0.0,1.0,1.0,1.0, 1.0
478,0.0228,0.132,3.45,0.132,3.45,0.5424893664762167,0.0,0.8400626686505198,-0.0,1.0,0.0,1.0,1.0,1.0, 1.0
479,0.0228,0.132,3.45,0.132,3.45,0.5924881276883527,0.0,0.8055791820475194,-0.0,1.0,0.0,1.0,1.0,1.0, 1.0
480,0.0228,0.132,3.45,0.132,3.45,0.6401798214571668,0.0,0.7682250947470215,-0.0,1.0,0.0,1.0,1.0,1.0, 1.0
481,0.0228,0.132,3.45,0.132,3.45,0.6854279556276803,0.0,0.7281404518662994,-0.0,1.0,0.0,1.0,1.0,1.0, 1.0
482,0.0228,0.132,3.45,0.132,3.45,0.02969144426136721,0.0,0.9995591118776688,-0.0,1.0,0.0,1.0,1.0,1.0, 1.0
483,0.0228,0.132,3.45,0.132,3.45,0.08933948612193117,0.0,0.9960012330411389,-0.0,1.0,0.0,1.0,1.0,1.0, 1.0
484,0.0228,0.132,3.45,0.132,3.45,0.1489312816794083,0.0,0.9888475480767137,-0.0,1.0,0.0,1.0,1.0,1.0, 1.0
485,0.0228,0.132,3.45,0.132,3.45,0.20817909458757516,0.0,0.9780907241031874,-0.0,1.0,0.0,1.0,1.0,1.0, 1.0
486,0.0228,0.132,3.45,0.132,3.45,0.2668388332414559,0.0,0.9637411670538611,-0.0,1.0,0.0,1.0,1.0,1.0, 1.0
487,0.0228,0.132,3.45,0.132,3.45,0.32466818309014567,0.0,0.9458279816588976,-0.0,1.0,0.0,1.0,1.0,1.0, 1.0
488,0.0228,0.132,3.45,0.132,3.45,0.38141521571339304,0.0,0.9244038258371207,-0.0,1.0,0.0,1.0,1.0,1.0, 1.0
489,0.0228,0.132,3.45,0.132,3.45,0.4368168522605894,0.0,0.8995504641659358,-0.0,1.0,0.0,1.0,1.0,1.0, 1.0
490,0.0228,0.132,3.45,0.132,3.45,0.4906174753123768,0.0,0.8713750586963741,-0.0,1.0,0.0,1.0,1.0,1.0, 1.0
491,0.0228,0.132,3.45,0.132,3.45,0.542581504783995,0.0,0.840003161104966,-0.0,1.0,0.0,1.0,1.0,1.0, 1.0
492,0.0228,0.132,3.45,0.132,3.45,0.5924895110861759,0.0,0.8055781645829685,-0.0,1.0,0.0,1.0,1.0,1.0, 1.0
493,0.0228,0.132,3.45,0.132,3.45,0.6401530623470844,0.0,0.7682473929455602,-0.0,1.0,0.0,1.0,1.0,1.0, 1.0
494,0.0228,0.132,3.45,0.132,3.45,0.6854173312003408,0.0,0.728150452921786,-0.0,1.0,0.0,1.0,1.0,1.0, 1.0
495,0.0228,0.132,3.45,0.132,3.45,0.030014007121822846,0.0,0.999549478203301,-0.0,1.0,0.0,1.0,1.0,1.0, 1.0
496,0.0228,0.132,3.45,0.132,3.45,0.09008604345753661,0.0,0.9959339861527805,-0.0,1.0,0.0,1.0,1.0,1.0, 1.0
497,0.0228,0.132,3.45,0.132,3.45,0.1499249224923029,0.0,0.9886973842464017,-0.0,1.0,0.0,1.0,1.0,1.0, 1.0
498,0.0228,0.132,3.45,0.132,3.45,0.20928380287110343,0.0,0.977854943156606,-0.0,1.0,0.0,1.0,1.0,1.0, 1.0
499,0.0228,0.132,3.45,0.132,3.45,0.267935480113353,0.0,0.9634368575555051,-0.0,1.0,0.0,1.0,1.0,1.0, 1.0
500,0.0228,0.132,3.45,0.132,3.45,0.325658742107016,0.0,0.9454873789159092,-0.0,1.0,0.0,1.0,1.0,1.0, 1.0
501,0.0228,0.132,3.45,0.132,3.45,0.38223268694781887,0.0,0.9240661085813345,-0.0,1.0,0.0,1.0,1.0,1.0, 1.0
502,0.0228,0.132,3.45,0.132,3.45,0.43742410727769343,0.0,0.8992553310224594,-0.0,1.0,0.0,1.0,1.0,1.0, 1.0
503,0.0228,0.132,3.45,0.132,3.45,0.4910207748146184,0.0,0.871147862707848,-0.0,1.0,0.0,1.0,1.0,1.0, 1.0
504,0.0228,0.132,3.45,0.132,3.45,0.5428127954495988,0.0,0.8398537188678705,-0.0,1.0,0.0,1.0,1.0,1.0, 1.0
505,0.0228,0.132,3.45,0.132,3.45,0.5925909125887049,0.0,0.805503575608008,-0.0,1.0,0.0,1.0,1.0,1.0, 1.0
506,0.0228,0.132,3.45,0.132,3.45,0.6401864752150379,0.0,0.7682195499671598,-0.0,1.0,0.0,1.0,1.0,1.0, 1.0
507,0.0228,0.132,3.45,0.132,3.45,0.6854249282152688,0.0,0.7281433016797543,-0.0,1.0,0.0,1.0,1.0,1.0, 1.0
508,0.0228,0.132,3.45,0.132,3.45,0.032731344573684984,0.0,0.9994641859928742,-0.0,1.0,0.0,1.0,1.0,1.0, 1.0
509,0.0228,0.132,3.45,0.132,3.45,0.0980119301061136,0.0,0.9951852398206449,-0.0,1.0,0.0,1.0,1.0,1.0, 1.0
510,0.0228,0.132,3.45,0.132,3.45,0.16306871660854902,0.0,0.9866147138896929,-0.0,1.0,0.0,1.0,1.0,1.0, 1.0
511,0.0228,0.132,3.45,0.132,3.45,0.22766422043431908,0.0,0.9737396996805839,-0.0,1.0,0.0,1.0,1.0,1.0, 1.0
512,0.0228,0.132,3.45,0.132,3.45,0.29128946263506034,0.0,0.9566349611830929,-0.0,1.0,0.0,1.0,1.0,1.0, 1.0
513,0.0228,0.132,3.45,0.132,3.45,0.3533218527406879,0.0,0.9355018270296898,-0.0,1.0,0.0,1.0,1.0,1.0, 1.0
514,0.0228,0.132,3.45,0.132,3.45,0.4131443876344121,0.0,0.9106655340827315,-0.0,1.0,0.0,1.0,1.0,1.0, 1.0
515,0.0228,0.132,3.45,0.132,3.45,0.47017908083727417,0.0,0.8825710350691416,-0.0,1.0,0.0,1.0,1.0,1.0, 1.0
516,0.0228,0.132,3.45,0.132,3.45,0.5239219912735887,0.0,0.8517662514210795,-0.0,1.0,0.0,1.0,1.0,1.0, 1.0
517,0.0228,0.132,3.45,0.132,3.45,0.5739208350429776,0.0,0.8189107858024408,-0.0,1.0,0.0,1.0,1.0,1.0, 1.0
518,0.0228,0.132,3.45,0.132,3.45,0.6196295645668426,0.0,0.7848943895293844,-0.0,1.0,0.0,1.0,1.0,1.0, 1.0
519,0.0228,0.132,3.45,0.132,3.45,0.6599761455384677,0.0,0.7512865547314069,-0.0,1.0,0.0,1.0,1.0,1.0, 1.0
520,0.0228,0.132,3.45,0.132,3.45,0.6929194885595018,0.0,0.7210149668172211,-0.0,1.0,0.0,1.0,1.0,1.0, 1.0
521,0.0228,0.132,3.45,0.132,3.45,0.03135557426772442,0.0,0.9995082930933297,-0.0,1.0,0.0,1.0,1.0,1.0, 1.0
522,0.0228,0.132,3.45,0.132,3.45,0.09403039199883068,0.0,0.9955693272598078,-0.0,1.0,0.0,1.0,1.0,1.0, 1.0
523,0.0228,0.132,3.45,0.132,3.45,0.1567132295051834,0.0,0.9876441483135795,-0.0,1.0,0.0,1.0,1.0,1.0, 1.0
524,0.0228,0.132,3.45,0.132,3.45,0.2192242126496653,0.0,0.9756745075014179,-0.0,1.0,0.0,1.0,1.0,1.0, 1.0
525,0.0228,0.132,3.45,0.132,3.45,0.28111524620554246,0.0,0.9596740167112983,-0.0,1.0,0.0,1.0,1.0,1.0, 1.0
526,0.0228,0.132,3.45,0.132,3.45,0.3418212252770267,0.0,0.939764997193507,-0.0,1.0,0.0,1.0,1.0,1.0, 1.0
527,0.0228,0.132,3.45,0.132,3.45,0.40076128240898373,0.0,0.9161825115782918,-0.0,1.0,0.0,1.0,1.0,1.0, 1.0
528,0.0228,0.132,3.45,0.132,3.45,0.45736460983339217,0.0,0.889279266412947,-0.0,1.0,0.0,1.0,1.0,1.0, 1.0
529,0.0228,0.132,3.45,0.132,3.45,0.5111304423319544,0.0,0.859503153526234,-0.0,1.0,0.0,1.0,1.0,1.0, 1.0
530,0.0228,0.132,3.45,0.132,3.45,0.5616128078715444,0.0,0.8274001776858885,-0.0,1.0,0.0,1.0,1.0,1.0, 1.0
531,0.0228,0.132,3.45,0.132,3.45,0.6084017640295167,0.0,0.7936291914526408,-0.0,1.0,0.0,1.0,1.0,1.0, 1.0
532,0.0228,0.132,3.45,0.132,3.45,0.6510489315668926,0.0,0.7590357624681512,-0.0,1.0,0.0,1.0,1.0,1.0, 1.0
533,0.0228,0.132,3.45,0.132,3.45,0.6892946991361001,0.0,0.7244810678981702,-0.0,1.0,0.0,1.0,1.0,1.0, 1.0
534,0.0228,0.132,3.45,0.132,3.45,0.030561519415230068,0.0,0.9995328876685511,-0.0,1.0,0.0,1.0,1.0,1.0, 1.0
535,0.0228,0.132,3.45,0.132,3.45,0.0917603481930478,0.0,0.995781119774567,-0.0,1.0,0.0,1.0,1.0,1.0, 1.0
536,0.0228,0.132,3.45,0.132,3.45,0.15311559386153958,0.0,0.9882082851891235,-0.0,1.0,0.0,1.0,1.0,1.0, 1.0
537,0.0228,0.132,3.45,0.132,3.45,0.2144683595298898,0.0,0.976730936727489,-0.0,1.0,0.0,1.0,1.0,1.0, 1.0
538,0.0228,0.132,3.45,0.132,3.45,0.2754091634061467,0.0,0.9613270997490533,-0.0,1.0,0.0,1.0,1.0,1.0, 1.0
539,0.0228,0.132,3.45,0.132,3.45,0.33541030094484536,0.0,0.9420721469293571,-0.0,1.0,0.0,1.0,1.0,1.0, 1.0
540,0.0228,0.132,3.45,0.132,3.45,0.39392547678430645,0.0,0.9191423821912778,-0.0,1.0,0.0,1.0,1.0,1.0, 1.0
541,0.0228,0.132,3.45,0.132,3.45,0.4503977265373559,0.0,0.8928280281946693,-0.0,1.0,0.0,1.0,1.0,1.0, 1.0
542,0.0228,0.132,3.45,0.132,3.45,0.5043322256545938,0.0,0.863509702415835,-0.0,1.0,0.0,1.0,1.0,1.0, 1.0
543,0.0228,0.132,3.45,0.132,3.45,0.555299873995511,0.0,0.8316501968619797,-0.0,1.0,0.0,1.0,1.0,1.0, 1.0
544,0.0228,0.132,3.45,0.132,3.45,0.6029349848748906,0.0,0.7977903258462811,-0.0,1.0,0.0,1.0,1.0,1.0, 1.0
545,0.0228,0.132,3.45,0.132,3.45,0.6470606901850822,0.0,0.7624384979899722,-0.0,1.0,0.0,1.0,1.0,1.0, 1.0
546,0.0228,0.132,3.45,0.132,3.45,0.6878010548803706,0.0,0.725899241565556,-0.0,1.0,0.0,1.0,1.0,1.0, 1.0
547,0.0228,0.132,3.45,0.132,3.45,0.030047383547940648,0.0,0.9995484754337446,-0.0,1.0,0.0,1.0,1.0,1.0, 1.0
548,0.0228,0.132,3.45,0.132,3.45,0.09030876796970663,0.0,0.995913814758985,-0.0,1.0,0.0,1.0,1.0,1.0, 1.0
549,0.0228,0.132,3.45,0.132,3.45,0.15082645566154967,0.0,0.98856025626796,-0.0,1.0,0.0,1.0,1.0,1.0, 1.0
550,0.0228,0.132,3.45,0.132,3.45,0.21144805339866782,0.0,0.9773892370565138,-0.0,1.0,0.0,1.0,1.0,1.0, 1.0
551,0.0228,0.132,3.45,0.132,3.45,0.2717921351414916,0.0,0.9623559815760637,-0.0,1.0,0.0,1.0,1.0,1.0, 1.0
552,0.0228,0.132,3.45,0.132,3.45,0.3313639448970273,0.0,0.943503013255538,-0.0,1.0,0.0,1.0,1.0,1.0, 1.0
553,0.0228,0.132,3.45,0.132,3.45,0.3896358492471644,0.0,0.9209690032685361,-0.0,1.0,0.0,1.0,1.0,1.0, 1.0
554,0.0228,0.132,3.45,0.132,3.45,0.44608354819889384,0.0,0.8949913228776495,-0.0,1.0,0.0,1.0,1.0,1.0, 1.0
555,0.0228,0.132,3.45,0.132,3.45,0.5002248882986856,0.0,0.8658955255263578,-0.0,1.0,0.0,1.0,1.0,1.0, 1.0
556,0.0228,0.132,3.45,0.132,3.45,0.5516261601711313,0.0,0.8340914694533529,-0.0,1.0,0.0,1.0,1.0,1.0, 1.0
557,0.0228,0.132,3.45,0.132,3.45,0.5999549587020437,0.0,0.8000337789923804,-0.0,1.0,0.0,1.0,1.0,1.0, 1.0
558,0.0228,0.132,3.45,0.132,3.45,0.645055813087532,0.0,0.7641354578881829,-0.0,1.0,0.0,1.0,1.0,1.0, 1.0
559,0.0228,0.132,3.45,0.132,3.45,0.6870876198217137,0.0,0.7265745678784334,-0.0,1.0,0.0,1.0,1.0,1.0, 1.0
560,0.0228,0.132,3.45,0.132,3.45,0.029678545722095,0.0,0.9995594949395566,-0.0,1.0,0.0,1.0,1.0,1.0, 1.0
561,0.0228,0.132,3.45,0.132,3.45,0.08927408859611691,0.0,0.9960070969151439,-0.0,1.0,0.0,1.0,1.0,1.0, 1.0
562,0.0228,0.132,3.45,0.132,3.45,0.14918971692789604,0.0,0.9888085903565837,-0.0,1.0,0.0,1.0,1.0,1.0, 1.0
563,0.0228,0.132,3.45,0.132,3.45,0.2092741042467567,0.0,0.9778570188384995,-0.0,1.0,0.0,1.0,1.0,1.0, 1.0
564,0.0228,0.132,3.45,0.132,3.45,0.26917095998627955,0.0,0.963092412128797,-0.0,1.0,0.0,1.0,1.0,1.0, 1.0
565,0.0228,0.132,3.45,0.132,3.45,0.32841413473148623,0.0,0.9445338300498132,-0.0,1.0,0.0,1.0,1.0,1.0, 1.0
566,0.0228,0.132,3.45,0.132,3.45,0.38649489295129674,0.0,0.9222915470297696,-0.0,1.0,0.0,1.0,1.0,1.0, 1.0
567,0.0228,0.132,3.45,0.132,3.45,0.4429188554122301,0.0,0.8965617031305319,-0.0,1.0,0.0,1.0,1.0,1.0, 1.0
568,0.0228,0.132,3.45,0.132,3.45,0.49722716884386414,0.0,0.867620390818194,-0.0,1.0,0.0,1.0,1.0,1.0, 1.0
569,0.0228,0.132,3.45,0.132,3.45,0.5489880890508909,0.0,0.8358301729898551,-0.0,1.0,0.0,1.0,1.0,1.0, 1.0
570,0.0228,0.132,3.45,0.132,3.45,0.59787436250304,0.0,0.8015898244498763,-0.0,1.0,0.0,1.0,1.0,1.0, 1.0
571,0.0228,0.132,3.45,0.132,3.45,0.643725189389119,0.0,0.7652567415880391,-0.0,1.0,0.0,1.0,1.0,1.0, 1.0
572,0.0228,0.132,3.45,0.132,3.45,0.6866367216128769,0.0,0.7270006963770533,-0.0,1.0,0.0,1.0,1.0,1.0, 1.0
573,0.0228,0.132,3.45,0.132,3.45,0.02942316950761762,0.0,0.9995670448229703,-0.0,1.0,0.0,1.0,1.0,1.0, 1.0
574,0.0228,0.132,3.45,0.132,3.45,0.08855536069436916,0.0,0.9960712565335325,-0.0,1.0,0.0,1.0,1.0,1.0, 1.0
575,0.0228,0.132,3.45,0.132,3.45,0.1480408053448422,0.0,0.9889812535902036,-0.0,1.0,0.0,1.0,1.0,1.0, 1.0
576,0.0228,0.132,3.45,0.132,3.45,0.2077216145605073,0.0,0.9781879833878435,-0.0,1.0,0.0,1.0,1.0,1.0, 1.0
577,0.0228,0.132,3.45,0.132,3.45,0.26726055752419364,0.0,0.9636243014743129,-0.0,1.0,0.0,1.0,1.0,1.0, 1.0
578,0.0228,0.132,3.45,0.132,3.45,0.3262201118155325,0.0,0.9452938371993449,-0.0,1.0,0.0,1.0,1.0,1.0, 1.0
579,0.0228,0.132,3.45,0.132,3.45,0.384125007734022,0.0,0.9232810939434088,-0.0,1.0,0.0,1.0,1.0,1.0, 1.0
580,0.0228,0.132,3.45,0.132,3.45,0.4405046755388549,0.0,0.8977503165292721,-0.0,1.0,0.0,1.0,1.0,1.0, 1.0
581,0.0228,0.132,3.45,0.132,3.45,0.49491578818723164,0.0,0.868940943104312,-0.0,1.0,0.0,1.0,1.0,1.0, 1.0
582,0.0228,0.132,3.45,0.132,3.45,0.5469408377093479,0.0,0.8371712608814261,-0.0,1.0,0.0,1.0,1.0,1.0, 1.0
583,0.0228,0.132,3.45,0.132,3.45,0.5962638086613529,0.0,0.8027885590120588,-0.0,1.0,0.0,1.0,1.0,1.0, 1.0
584,0.0228,0.132,3.45,0.132,3.45,0.642703204922282,0.0,0.7661152592023132,-0.0,1.0,0.0,1.0,1.0,1.0, 1.0
585,0.0228,0.132,3.45,0.132,3.45,0.6862940992375657,0.0,0.7273241432481795,-0.0,1.0,0.0,1.0,1.0,1.0, 1.0
586,0.0228,0.132,3.45,0.132,3.45,0.029273883752635926,0.0,0.999571428028051,-0.0,1.0,0.0,1.0,1.0,1.0, 1.0
587,0.0228,0.132,3.45,0.132,3.45,0.08812729080031176,0.0,0.9961092212283738,-0.0,1.0,0.0,1.0,1.0,1.0, 1.0
588,0.0228,0.132,3.45,0.132,3.45,0.14733484689184398,0.0,0.989086671071528,-0.0,1.0,0.0,1.0,1.0,1.0, 1.0
589,0.0228,0.132,3.45,0.132,3.45,0.20672892547550953,0.0,0.9783982580584152,-0.0,1.0,0.0,1.0,1.0,1.0, 1.0
590,0.0228,0.132,3.45,0.132,3.45,0.26598663428254093,0.0,0.9639767167224765,-0.0,1.0,0.0,1.0,1.0,1.0, 1.0
591,0.0228,0.132,3.45,0.132,3.45,0.32470066551210064,0.0,0.9458168310069339,-0.0,1.0,0.0,1.0,1.0,1.0, 1.0
592,0.0228,0.132,3.45,0.132,3.45,0.3824281711991493,0.0,0.9239852238392529,-0.0,1.0,0.0,1.0,1.0,1.0, 1.0
593,0.0228,0.132,3.45,0.132,3.45,0.4387304295188346,0.0,0.8986187234941295,-0.0,1.0,0.0,1.0,1.0,1.0, 1.0
594,0.0228,0.132,3.45,0.132,3.45,0.49318249943110004,0.0,0.8699258717010852,-0.0,1.0,0.0,1.0,1.0,1.0, 1.0
595,0.0228,0.132,3.45,0.132,3.45,0.5453804540558117,0.0,0.8381886185900382,-0.0,1.0,0.0,1.0,1.0,1.0, 1.0
596,0.0228,0.132,3.45,0.132,3.45,0.5950202143011036,0.0,0.8037107343895992,-0.0,1.0,0.0,1.0,1.0,1.0, 1.0
597,0.0228,0.132,3.45,0.132,3.45,0.6419046308201198,0.0,0.7667844840186097,-0.0,1.0,0.0,1.0,1.0,1.0, 1.0
598,0.0228,0.132,3.45,0.132,3.45,0.6860243114141109,0.0,0.7275786171602316,-0.0,1.0,0.0,1.0,1.0,1.0, 1.0
599,0.0228,0.132,3.45,0.132,3.45,0.02922053132037254,0.0,0.9995729891055256,-0.0,1.0,0.0,1.0,1.0,1.0, 1.0
600,0.0228,0.132,3.45,0.132,3.45,0.08796337469305344,0.0,0.9961237095424491,-0.0,1.0,0.0,1.0,1.0,1.0, 1.0
601,0.0228,0.132,3.45,0.132,3.45,0.14702827126006404,0.0,0.9891322901666274,-0.0,1.0,0.0,1.0,1.0,1.0, 1.0
602,0.0228,0.132,3.45,0.132,3.45,0.20623738611896042,0.0,0.9785019880239483,-0.0,1.0,0.0,1.0,1.0,1.0, 1.0
603,0.0228,0.132,3.45,0.132,3.45,0.2652821720245864,0.0,0.964170819515877,-0.0,1.0,0.0,1.0,1.0,1.0, 1.0
604,0.0228,0.132,3.45,0.132,3.45,0.3237861128292515,0.0,0.9461303045241302,-0.0,1.0,0.0,1.0,1.0,1.0, 1.0
605,0.0228,0.132,3.45,0.132,3.45,0.3813361136359856,0.0,0.9244364599241003,-0.0,1.0,0.0,1.0,1.0,1.0, 1.0
606,0.0228,0.132,3.45,0.132,3.45,0.4375163425044333,0.0,0.8992104592594236,-0.0,1.0,0.0,1.0,1.0,1.0, 1.0
607,0.0228,0.132,3.45,0.132,3.45,0.4919418493100813,0.0,0.870628058873235,-0.0,1.0,0.0,1.0,1.0,1.0, 1.0
608,0.0228,0.132,3.45,0.132,3.45,0.5442365432329483,0.0,0.8389318118952525,-0.0,1.0,0.0,1.0,1.0,1.0, 1.0
609,0.0228,0.132,3.45,0.132,3.45,0.5940824781345728,0.0,0.8044041329912998,-0.0,1.0,0.0,1.0,1.0,1.0, 1.0
610,0.0228,0.132,3.45,0.132,3.45,0.6412891948958556,0.0,0.7672992691967232,-0.0,1.0,0.0,1.0,1.0,1.0, 1.0
611,0.0228,0.132,3.45,0.132,3.45,0.6858172267578072,0.0,0.7277738189040813,-0.0,1.0,0.0,1.0,1.0,1.0, 1.0
612,0.0228,0.132,3.45,0.132,3.45,0.029248710793971847,0.0,0.9995721649370247,-0.0,1.0,0.0,1.0,1.0,1.0, 1.0
613,0.0228,0.132,3.45,0.132,3.45,0.08802755440497713,0.0,0.99611804002612,-0.0,1.0,0.0,1.0,1.0,1.0, 1.0
614,0.0228,0.132,3.45,0.132,3.45,0.14706680142263232,0.0,0.9891265621341467,-0.0,1.0,0.0,1.0,1.0,1.0, 1.0
615,0.0228,0.132,3.45,0.132,3.45,0.2061775213680824,0.0,0.9785146037144842,-0.0,1.0,0.0,1.0,1.0,1.0, 1.0
616,0.0228,0.132,3.45,0.132,3.45,0.2650678800752042,0.0,0.9642297542351808,-0.0,1.0,0.0,1.0,1.0,1.0, 1.0
617,0.0228,0.132,3.45,0.132,3.45,0.3233844744852465,0.0,0.9462676585733558,-0.0,1.0,0.0,1.0,1.0,1.0, 1.0
618,0.0228,0.132,3.45,0.132,3.45,0.3807490175922948,0.0,0.9246784228057354,-0.0,1.0,0.0,1.0,1.0,1.0, 1.0
619,0.0228,0.132,3.45,0.132,3.45,0.4367866199840401,0.0,0.8995651441685131,-0.0,1.0,0.0,1.0,1.0,1.0, 1.0
620,0.0228,0.132,3.45,0.132,3.45,0.49113250610523446,0.0,0.8710848761439909,-0.0,1.0,0.0,1.0,1.0,1.0, 1.0
621,0.0228,0.132,3.45,0.132,3.45,0.5434397166450351,0.0,0.839448196360421,-0.0,1.0,0.0,1.0,1.0,1.0, 1.0
622,0.0228,0.132,3.45,0.132,3.45,0.5934070406808302,0.0,0.804902530788927,-0.0,1.0,0.0,1.0,1.0,1.0, 1.0
623,0.0228,0.132,3.45,0.132,3.45,0.6408345993568492,0.0,0.7676789799565614,-0.0,1.0,0.0,1.0,1.0,1.0, 1.0
624,0.0228,0.132,3.45,0.132,3.45,0.6856598386617493,0.0,0.7279221013586166,-0.0,1.0,0.0,1.0,1.0,1.0, 1.0
625,0.0228,0.132,3.45,0.132,3.45,0.029346940798460418,0.0,0.9995692857755143,-0.0,1.0,0.0,1.0,1.0,1.0, 1.0
626,0.0228,0.132,3.45,0.132,3.45,0.08828794016777171,0.0,0.9960949952795325,-0.0,1.0,0.0,1.0,1.0,1.0, 1.0
627,0.0228,0.132,3.45,0.132,3.45,0.14740251271025348,0.0,0.9890765891712854,-0.0,1.0,0.0,1.0,1.0,1.0, 1.0
628,0.0228,0.132,3.45,0.132,3.45,0.2064873985742527,0.0,0.9784492599159333,-0.0,1.0,0.0,1.0,1.0,1.0, 1.0
629,0.0228,0.132,3.45,0.132,3.45,0.265267504848177,0.0,0.9641748549260255,-0.0,1.0,0.0,1.0,1.0,1.0, 1.0
630,0.0228,0.132,3.45,0.132,3.45,0.3234186681074961,0.0,0.9462559723032522,-0.0,1.0,0.0,1.0,1.0,1.0, 1.0
631,0.0228,0.132,3.45,0.132,3.45,0.380594618730591,0.0,0.9247419835788337,-0.0,1.0,0.0,1.0,1.0,1.0, 1.0
632,0.0228,0.132,3.45,0.132,3.45,0.43645988080894843,0.0,0.8997237200631305,-0.0,1.0,0.0,1.0,1.0,1.0, 1.0
633,0.0228,0.132,3.45,0.132,3.45,0.49068381637492925,0.0,0.8713377028154667,-0.0,1.0,0.0,1.0,1.0,1.0, 1.0
634,0.0228,0.132,3.45,0.132,3.45,0.5429356217113448,0.0,0.8397743212773986,-0.0,1.0,0.0,1.0,1.0,1.0, 1.0
635,0.0228,0.132,3.45,0.132,3.45,0.5929475167514878,0.0,0.8052411082267497,-0.0,1.0,0.0,1.0,1.0,1.0, 1.0
636,0.0228,0.132,3.45,0.132,3.45,0.6405206415609073,0.0,0.7679409532863862,-0.0,1.0,0.0,1.0,1.0,1.0, 1.0
637,0.0228,0.132,3.45,0.132,3.45,0.68555043335159,0.0,0.7280251392166669,-0.0,1.0,0.0,1.0,1.0,1.0, 1.0
638,0.0228,0.132,3.45,0.132,3.45,0.029509789643313206,0.0,0.9995644913237002,-0.0,1.0,0.0,1.0,1.0,1.0, 1.0
639,0.0228,0.132,3.45,0.132,3.45,0.08872523053143985,0.0,0.9960561397166039,-0.0,1.0,0.0,1.0,1.0,1.0, 1.0
640,0.0228,0.132,3.45,0.132,3.45,0.14800379473274516,0.0,0.988986793008232,-0.0,1.0,0.0,1.0,1.0,1.0, 1.0
641,0.0228,0.132,3.45,0.132,3.45,0.20712682435690083,0.0,0.978314100190642,-0.0,1.0,0.0,1.0,1.0,1.0, 1.0
642,0.0228,0.132,3.45,0.132,3.45,0.2658343322475624,0.0,0.9640187279293347,-0.0,1.0,0.0,1.0,1.0,1.0, 1.0
643,0.0228,0.132,3.45,0.132,3.45,0.32383782925106014,0.0,0.9461126044747323,-0.0,1.0,0.0,1.0,1.0,1.0, 1.0
644,0.0228,0.132,3.45,0.132,3.45,0.3808273019099413,0.0,0.9246461842888849,-0.0,1.0,0.0,1.0,1.0,1.0, 1.0
645,0.0228,0.132,3.45,0.132,3.45,0.43649291966055387,0.0,0.8997076920234733,-0.0,1.0,0.0,1.0,1.0,1.0, 1.0
646,0.0228,0.132,3.45,0.132,3.45,0.49054208603348504,0.0,0.871417501448024,-0.0,1.0,0.0,1.0,1.0,1.0, 1.0
647,0.0228,0.132,3.45,0.132,3.45,0.542686800648896,0.0,0.8399351382109607,-0.0,1.0,0.0,1.0,1.0,1.0, 1.0
648,0.0228,0.132,3.45,0.132,3.45,0.5926820257437736,0.0,0.8054365377608945,-0.0,1.0,0.0,1.0,1.0,1.0, 1.0
649,0.0228,0.132,3.45,0.132,3.45,0.6403229408364931,0.0,0.7681058074500575,-0.0,1.0,0.0,1.0,1.0,1.0, 1.0
650,0.0228,0.132,3.45,0.132,3.45,0.685479073230046,0.0,0.7280923294223592,-0.0,1.0,0.0,1.0,1.0,1.0, 1.0
651,0.0228,0.132,3.45,0.132,3.45,0.0297374902986066,0.0,0.9995577430397607,-0.0,1.0,0.0,1.0,1.0,1.0, 1.0
652,0.0228,0.132,3.45,0.132,3.45,0.08932997867529077,0.0,0.9960020857959445,-0.0,1.0,0.0,1.0,1.0,1.0, 1.0
653,0.0228,0.132,3.45,0.132,3.45,0.14884728201312353,0.0,0.9888601956987174,-0.0,1.0,0.0,1.0,1.0,1.0, 1.0
654,0.0228,0.132,3.45,0.132,3.45,0.2080626751845909,0.0,0.9781154958362696,-0.0,1.0,0.0,1.0,1.0,1.0, 1.0
655,0.0228,0.132,3.45,0.132,3.45,0.26673206070628974,0.0,0.9637707236637644,-0.0,1.0,0.0,1.0,1.0,1.0, 1.0
656,0.0228,0.132,3.45,0.132,3.45,0.32459766450579663,0.0,0.9458521851734456,-0.0,1.0,0.0,1.0,1.0,1.0, 1.0
657,0.0228,0.132,3.45,0.132,3.45,0.38139376381837903,0.0,0.9244126767415355,-0.0,1.0,0.0,1.0,1.0,1.0, 1.0
658,0.0228,0.132,3.45,0.132,3.45,0.43684482483005277,0.0,0.8995368802996354,-0.0,1.0,0.0,1.0,1.0,1.0, 1.0
659,0.0228,0.132,3.45,0.132,3.45,0.49068405364824996,0.0,0.8713375691976797,-0.0,1.0,0.0,1.0,1.0,1.0, 1.0
660,0.0228,0.132,3.45,0.132,3.45,0.5426725488518657,0.0,0.8399443462055206,-0.0,1.0,0.0,1.0,1.0,1.0, 1.0
661,0.0228,0.132,3.45,0.132,3.45,0.5925866981183547,0.0,0.805506676082319,-0.0,1.0,0.0,1.0,1.0,1.0, 1.0
662,0.0228,0.132,3.45,0.132,3.45,0.6402251892226108,0.0,0.7681872864639665,-0.0,1.0,0.0,1.0,1.0,1.0, 1.0
663,0.0228,0.132,3.45,0.132,3.45,0.6854415920397092,0.0,0.7281276151211878,-0.0,1.0,0.0,1.0,1.0,1.0, 1.0
664,0.0228,0.132,3.45,0.132,3.45,0.030034362707622032,0.0,0.999548866767777,-0.0,1.0,0.0,1.0,1.0,1.0, 1.0
665,0.0228,0.132,3.45,0.132,3.45,0.0900837854898094,0.0,0.995934190392029,-0.0,1.0,0.0,1.0,1.0,1.0, 1.0
666,0.0228,0.132,3.45,0.132,3.45,0.14989330713804858,0.0,0.9887021778448849,-0.0,1.0,0.0,1.0,1.0,1.0, 1.0
667,0.0228,0.132,3.45,0.132,3.45,0.2092377209432222,0.0,0.9778648046302139,-0.0,1.0,0.0,1.0,1.0,1.0, 1.0
668,0.0228,0.132,3.45,0.132,3.45,0.2678897103071889,0.0,0.9634495851426428,-0.0,1.0,0.0,1.0,1.0,1.0, 1.0
669,0.0228,0.132,3.45,0.132,3.45,0.32562537243659373,0.0,0.945498871932447,-0.0,1.0,0.0,1.0,1.0,1.0, 1.0
670,0.0228,0.132,3.45,0.132,3.45,0.38221546773841464,0.0,0.92407323098416,-0.0,1.0,0.0,1.0,1.0,1.0, 1.0
671,0.0228,0.132,3.45,0.132,3.45,0.43742638368106335,0.0,0.8992542237096844,-0.0,1.0,0.0,1.0,1.0,1.0, 1.0
672,0.0228,0.132,3.45,0.132,3.45,0.4910351066064177,0.0,0.8711397844663186,-0.0,1.0,0.0,1.0,1.0,1.0, 1.0
673,0.0228,0.132,3.45,0.132,3.45,0.5428352602954466,0.0,0.8398391990017938,-0.0,1.0,0.0,1.0,1.0,1.0, 1.0
674,0.0228,0.132,3.45,0.132,3.45,0.5926194109426234,0.0,0.8054826092312721,-0.0,1.0,0.0,1.0,1.0,1.0, 1.0
675,0.0228,0.132,3.45,0.132,3.45,0.6402048271279344,0.0,0.7682042562509608,-0.0,1.0,0.0,1.0,1.0,1.0, 1.0
676,0.0228,0.132,3.45,0.132,3.45,0.6854290337225564,0.0,0.7281394370106337,-0.0,1.0,0.0,1.0,1.0,1.0, 1.0
677,0.0228,0.132,3.45,0.132,3.45,0.9993902565343528,0.0,0.03491582942163207,-0.0,1.0,0.0,1.0,1.0,1.0, 1.0
678,0.0228,0.132,3.45,0.132,3.45,0.9945382315264297,0.0,0.10437291809795098,-0.0,1.0,0.0,1.0,1.0,1.0, 1.0
679,0.0228,0.132,3.45,0.132,3.45,0.9848769609828913,0.0,0.17325522135019222,-0.0,1.0,0.0,1.0,1.0,1.0, 1.0
680,0.0228,0.132,3.45,0.132,3.45,0.9704748327309854,0.0,0.24120240263265616,-0.0,1.0,0.0,1.0,1.0,1.0, 1.0
681,0.0228,0.132,3.45,0.132,3.45,0.9515184200822626,0.0,0.3075917688172988,-0.0,1.0,0.0,1.0,1.0,1.0, 1.0
682,0.0228,0.132,3.45,0.132,3.45,0.9283374496487283,0.0,0.3717385903826706,-0.0,1.0,0.0,1.0,1.0,1.0, 1.0
683,0.0228,0.132,3.45,0.132,3.45,0.901381258907908,0.0,0.4330263572689256,-0.0,1.0,0.0,1.0,1.0,1.0, 1.0
684,0.0228,0.132,3.45,0.132,3.45,0.8711923798734458,0.0,0.49094178600974897,-0.0,1.0,0.0,1.0,1.0,1.0, 1.0
685,0.0228,0.132,3.45,0.132,3.45,0.8384138400854841,0.0,0.5450341574186998,-0.0,1.0,0.0,1.0,1.0,1.0, 1.0
686,0.0228,0.132,3.45,0.132,3.45,0.8038404928525845,0.0,0.5948449058792671,-0.0,1.0,0.0,1.0,1.0,1.0, 1.0
687,0.0228,0.132,3.45,0.132,3.45,0.768617210937057,0.0,0.6397089830941408,-0.0,1.0,0.0,1.0,1.0,1.0, 1.0
688,0.0228,0.132,3.45,0.132,3.45,0.734921209198054,0.0,0.6781525022226712,-0.0,1.0,0.0,1.0,1.0,1.0, 1.0
689,0.0228,0.132,3.45,0.132,3.45,0.7071443190388268,0.0,0.7070692413414078,-0.0,1.0,0.0,1.0,1.0,1.0, 1.0
690,0.0228,0.132,3.45,0.132,3.45,0.9992606099472384,0.0,0.03844780107981495,-0.0,1.0,0.0,1.0,1.0,1.0, 1.0
691,0.0228,0.132,3.45,0.132,3.45,0.993403708994389,0.0,0.11466939851674157,-0.0,1.0,0.0,1.0,1.0,1.0, 1.0
692,0.0228,0.132,3.45,0.132,3.45,0.98184152624803,0.0,0.18970297133924643,-0.0,1.0,0.0,1.0,1.0,1.0, 1.0
693,0.0228,0.132,3.45,0.132,3.45,0.9648088541128488,0.0,0.2629522295502584,-0.0,1.0,0.0,1.0,1.0,1.0, 1.0
694,0.0228,0.132,3.45,0.132,3.45,0.9427138763024824,0.0,0.3336023792282479,-0.0,1.0,0.0,1.0,1.0,1.0, 1.0
695,0.0228,0.132,3.45,0.132,3.45,0.9161321959317353,0.0,0.40087628961725386,-0.0,1.0,0.0,1.0,1.0,1.0, 1.0
696,0.0228,0.132,3.45,0.132,3.45,0.8857457484645362,0.0,0.4641707326803347,-0.0,1.0,0.0,1.0,1.0,1.0, 1.0
697,0.0228,0.132,3.45,0.132,3.45,0.8522950692750317,0.0,0.5230612917139528,-0.0,1.0,0.0,1.0,1.0,1.0, 1.0
698,0.0228,0.132,3.45,0.132,3.45,0.816576846675022,0.0,0.577236739539574,-0.0,1.0,0.0,1.0,1.0,1.0, 1.0
699,0.0228,0.132,3.45,0.132,3.45,0.7794943866561549,0.0,0.6264092122339396,-0.0,1.0,0.0,1.0,1.0,1.0, 1.0
700,0.0228,0.132,3.45,0.132,3.45,0.7422840058621897,0.0,0.6700854084675928,-0.0,1.0,0.0,1.0,1.0,1.0, 1.0
701,0.0228,0.132,3.45,0.132,3.45,0.7072338432550033,0.0,0.7069796962818362,-0.0,1.0,0.0,1.0,1.0,1.0, 1.0
702,0.0228,0.132,3.45,0.132,3.45,0.6782902993272917,0.0,0.7347940322556336,-0.0,1.0,0.0,1.0,1.0,1.0, 1.0
703,0.0228,0.132,3.45,0.132,3.45,0.9990741778453657,0.0,0.043020775941475325,-0.0,1.0,0.0,1.0,1.0,1.0, 1.0
704,0.0228,0.132,3.45,0.132,3.45,0.9917752940330874,0.0,0.1279912737087298,-0.0,1.0,0.0,1.0,1.0,1.0, 1.0
705,0.0228,0.132,3.45,0.132,3.45,0.9775093353611776,0.0,0.21089215083010754,-0.0,1.0,0.0,1.0,1.0,1.0, 1.0
706,0.0228,0.132,3.45,0.132,3.45,0.9567914282140573,0.0,0.2907751070777973,-0.0,1.0,0.0,1.0,1.0,1.0, 1.0
707,0.0228,0.132,3.45,0.132,3.45,0.9303850118626155,0.0,0.36658386448587865,-0.0,1.0,0.0,1.0,1.0,1.0, 1.0
708,0.0228,0.132,3.45,0.132,3.45,0.8992384831805735,0.0,0.437458741331227,-0.0,1.0,0.0,1.0,1.0,1.0, 1.0
709,0.0228,0.132,3.45,0.132,3.45,0.8643603946863458,0.0,0.5028728548029459,-0.0,1.0,0.0,1.0,1.0,1.0, 1.0
710,0.0228,0.132,3.45,0.132,3.45,0.8267436791762787,0.0,0.5625787846533769,-0.0,1.0,0.0,1.0,1.0,1.0, 1.0
711,0.0228,0.132,3.45,0.132,3.45,0.7873502005703396,0.0,0.6165060110508624,-0.0,1.0,0.0,1.0,1.0,1.0, 1.0
712,0.0228,0.132,3.45,0.132,3.45,0.747170630119198,0.0,0.664632266360339,-0.0,1.0,0.0,1.0,1.0,1.0, 1.0
713,0.0228,0.132,3.45,0.132,3.45,0.7074873141228765,0.0,0.706726043354282,-0.0,1.0,0.0,1.0,1.0,1.0, 1.0
714,0.0228,0.132,3.45,0.132,3.45,0.6705439496722883,0.0,0.7418698076872302,-0.0,1.0,0.0,1.0,1.0,1.0, 1.0
715,0.0228,0.132,3.45,0.132,3.45,0.6399504629372195,0.0,0.7684161665311567,-0.0,1.0,0.0,1.0,1.0,1.0, 1.0
716,0.0228,0.132,3.45,0.132,3.45,0.9988199406120185,0.0,0.048566719426000604,-0.0,1.0,0.0,1.0,1.0,1.0, 1.0
717,0.0228,0.132,3.45,0.132,3.45,0.9895641846143669,0.0,0.14409276362296314,-0.0,1.0,0.0,1.0,1.0,1.0, 1.0
718,0.0228,0.132,3.45,0.132,3.45,0.9716785101873697,0.0,0.23630673464811305,-0.0,1.0,0.0,1.0,1.0,1.0, 1.0
719,0.0228,0.132,3.45,0.132,3.45,0.9461338962778206,0.0,0.3237756172322895,-0.0,1.0,0.0,1.0,1.0,1.0, 1.0
720,0.0228,0.132,3.45,0.132,3.45,0.9142397413741723,0.0,0.40517366065933524,-0.0,1.0,0.0,1.0,1.0,1.0, 1.0
721,0.0228,0.132,3.45,0.132,3.45,0.8774739002533681,0.0,0.4796243888441685,-0.0,1.0,0.0,1.0,1.0,1.0, 1.0
722,0.0228,0.132,3.45,0.132,3.45,0.837267672179976,0.0,0.5467932379998167,-0.0,1.0,0.0,1.0,1.0,1.0, 1.0
723,0.0228,0.132,3.45,0.132,3.45,0.7948962880483479,0.0,0.6067453265143111,-0.0,1.0,0.0,1.0,1.0,1.0, 1.0
724,0.0228,0.132,3.45,0.132,3.45,0.7514724484661256,0.0,0.6597644725175236,-0.0,1.0,0.0,1.0,1.0,1.0, 1.0
725,0.0228,0.132,3.45,0.132,3.45,0.7080448348323032,0.0,0.7061674814569816,-0.0,1.0,0.0,1.0,1.0,1.0, 1.0
726,0.0228,0.132,3.45,0.132,3.45,0.665885579633139,0.0,0.7460538819928748,-0.0,1.0,0.0,1.0,1.0,1.0, 1.0
727,0.0228,0.132,3.45,0.132,3.45,0.627148733321673,0.0,0.7788995225913424,-0.0,1.0,0.0,1.0,1.0,1.0, 1.0
728,0.0228,0.132,3.45,0.132,3.45,0.5952199049517998,0.0,0.8035628567505907,-0.0,1.0,0.0,1.0,1.0,1.0, 1.0
729,0.0228,0.132,3.45,0.132,3.45,0.9984743341211585,0.0,0.05521778790670029,-0.0,1.0,0.0,1.0,1.0,1.0, 1.0
730,0.0228,0.132,3.45,0.132,3.45,0.9865784811307499,0.0,0.16328778450864773,-0.0,1.0,0.0,1.0,1.0,1.0, 1.0
731,0.0228,0.132,3.45,0.132,3.45,0.963904795984499,0.0,0.2662471488637603,-0.0,1.0,0.0,1.0,1.0,1.0, 1.0
732,0.0228,0.132,3.45,0.132,3.45,0.9321677899851656,0.0,0.36202653399187784,-0.0,1.0,0.0,1.0,1.0,1.0, 1.0
733,0.0228,0.132,3.45,0.132,3.45,0.8935012129825086,0.0,0.44906077806771966,-0.0,1.0,0.0,1.0,1.0,1.0, 1.0
734,0.0228,0.132,3.45,0.132,3.45,0.8501081364945399,0.0,0.5266081619817344,-0.0,1.0,0.0,1.0,1.0,1.0, 1.0
735,0.0228,0.132,3.45,0.132,3.45,0.8039280002330316,0.0,0.5947266350528778,-0.0,1.0,0.0,1.0,1.0,1.0, 1.0
736,0.0228,0.132,3.45,0.132,3.45,0.7565160357518611,0.0,0.6539751429911453,-0.0,1.0,0.0,1.0,1.0,1.0, 1.0
737,0.0228,0.132,3.45,0.132,3.45,0.7090730804464075,0.0,0.7051349988379829,-0.0,1.0,0.0,1.0,1.0,1.0, 1.0
738,0.0228,0.132,3.45,0.132,3.45,0.6626359729114067,0.0,0.7489416315065904,-0.0,1.0,0.0,1.0,1.0,1.0, 1.0
739,0.0228,0.132,3.45,0.132,3.45,0.6183862847377062,0.0,0.7858742920138668,-0.0,1.0,0.0,1.0,1.0,1.0, 1.0
740,0.0228,0.132,3.45,0.132,3.45,0.578324051662538,0.0,0.81580714097673,-0.0,1.0,0.0,1.0,1.0,1.0, 1.0
741,0.0228,0.132,3.45,0.132,3.45,0.5455771492772472,0.0,0.8380606029318598,-0.0,1.0,0.0,1.0,1.0,1.0, 1.0
742,0.0228,0.132,3.45,0.132,3.45,0.9979905322581615,0.0,0.06336321900812375,-0.0,1.0,0.0,1.0,1.0,1.0, 1.0
743,0.0228,0.132,3.45,0.132,3.45,0.9824412053940229,0.0,0.18657244690451816,-0.0,1.0,0.0,1.0,1.0,1.0, 1.0
744,0.0228,0.132,3.45,0.132,3.45,0.953325194393332,0.0,0.30194548139509564,-0.0,1.0,0.0,1.0,1.0,1.0, 1.0
745,0.0228,0.132,3.45,0.132,3.45,0.9136037985871931,0.0,0.40660558186902873,-0.0,1.0,0.0,1.0,1.0,1.0, 1.0
746,0.0228,0.132,3.45,0.132,3.45,0.8666626319542688,0.0,0.4988946605989078,-0.0,1.0,0.0,1.0,1.0,1.0, 1.0
747,0.0228,0.132,3.45,0.132,3.45,0.8156575276112511,0.0,0.5785350444451064,-0.0,1.0,0.0,1.0,1.0,1.0, 1.0
748,0.0228,0.132,3.45,0.132,3.45,0.7630687397715179,0.0,0.6463173356668593,-0.0,1.0,0.0,1.0,1.0,1.0, 1.0
749,0.0228,0.132,3.45,0.132,3.45,0.710658897272606,0.0,0.7035367309012969,-0.0,1.0,0.0,1.0,1.0,1.0, 1.0
750,0.0228,0.132,3.45,0.132,3.45,0.6595912261618493,0.0,0.7516245168768169,-0.0,1.0,0.0,1.0,1.0,1.0, 1.0
751,0.0228,0.132,3.45,0.132,3.45,0.6107691852813266,0.0,0.7918086904744002,-0.0,1.0,0.0,1.0,1.0,1.0, 1.0
752,0.0228,0.132,3.45,0.132,3.45,0.565172262451348,0.0,0.8249729169831121,-0.0,1.0,0.0,1.0,1.0,1.0, 1.0
753,0.0228,0.132,3.45,0.132,3.45,0.5245321466275497,0.0,0.8513906430976881,-0.0,1.0,0.0,1.0,1.0,1.0, 1.0
754,0.0228,0.132,3.45,0.132,3.45,0.49166768386988624,0.0,0.8707829170568411,-0.0,1.0,0.0,1.0,1.0,1.0, 1.0
755,0.0228,0.132,3.45,0.132,3.45,0.9972796126451243,0.0,0.07371142518219741,-0.0,1.0,0.0,1.0,1.0,1.0, 1.0
756,0.0228,0.132,3.45,0.132,3.45,0.9764486899769045,0.0,0.21574975282114955,-0.0,1.0,0.0,1.0,1.0,1.0, 1.0
757,0.0228,0.132,3.45,0.132,3.45,0.9383861344436377,0.0,0.345588574295979,-0.0,1.0,0.0,1.0,1.0,1.0, 1.0
758,0.0228,0.132,3.45,0.132,3.45,0.8882326256295505,0.0,0.4593939516006221,-0.0,1.0,0.0,1.0,1.0,1.0, 1.0
759,0.0228,0.132,3.45,0.132,3.45,0.8312721820247829,0.0,0.5558655947185043,-0.0,1.0,0.0,1.0,1.0,1.0, 1.0
760,0.0228,0.132,3.45,0.132,3.45,0.7718219024986118,0.0,0.6358387773826187,-0.0,1.0,0.0,1.0,1.0,1.0, 1.0
761,0.0228,0.132,3.45,0.132,3.45,0.7127999195086359,0.0,0.7013674320557537,-0.0,1.0,0.0,1.0,1.0,1.0, 1.0
762,0.0228,0.132,3.45,0.132,3.45,0.6559392066218996,0.0,0.754813723521395,-0.0,1.0,0.0,1.0,1.0,1.0, 1.0
763,0.0228,0.132,3.45,0.132,3.45,0.6021556340278169,0.0,0.7983787274273769,-0.0,1.0,0.0,1.0,1.0,1.0, 1.0
764,0.0228,0.132,3.45,0.132,3.45,0.5520245789567805,0.0,0.833827838482015,-0.0,1.0,0.0,1.0,1.0,1.0, 1.0
765,0.0228,0.132,3.45,0.132,3.45,0.5061874636642882,0.0,0.8624234758105295,-0.0,1.0,0.0,1.0,1.0,1.0, 1.0
766,0.0228,0.132,3.45,0.132,3.45,0.4660171814478767,0.0,0.8847756702098996,-0.0,1.0,0.0,1.0,1.0,1.0, 1.0
767,0.0228,0.132,3.45,0.132,3.45,0.4339224969104094,0.0,0.9009502021061074,-0.0,1.0,0.0,1.0,1.0,1.0, 1.0
768,0.0228,0.132,3.45,0.132,3.45,0.9961610283396399,0.0,0.08753973736144613,-0.0,1.0,0.0,1.0,1.0,1.0, 1.0
769,0.0228,0.132,3.45,0.132,3.45,0.9672161440239438,0.0,0.2539545840095301,-0.0,1.0,0.0,1.0,1.0,1.0, 1.0
770,0.0228,0.132,3.45,0.132,3.45,0.9162047270875329,0.0,0.40071049158021743,-0.0,1.0,0.0,1.0,1.0,1.0, 1.0
771,0.0228,0.132,3.45,0.132,3.45,0.852277138746708,0.0,0.523090507244898,-0.0,1.0,0.0,1.0,1.0,1.0, 1.0
772,0.0228,0.132,3.45,0.132,3.45,0.7835091935843095,0.0,0.6213801924497313,-0.0,1.0,0.0,1.0,1.0,1.0, 1.0
773,0.0228,0.132,3.45,0.132,3.45,0.7153178762835588,0.0,0.6987992099803627,-0.0,1.0,0.0,1.0,1.0,1.0, 1.0
774,0.0228,0.132,3.45,0.132,3.45,0.6506325481605169,0.0,0.7593927095213336,-0.0,1.0,0.0,1.0,1.0,1.0, 1.0
775,0.0228,0.132,3.45,0.132,3.45,0.5906758853185632,0.0,0.806908915865435,-0.0,1.0,0.0,1.0,1.0,1.0, 1.0
776,0.0228,0.132,3.45,0.132,3.45,0.5357789093734628,0.0,0.8443583127266425,-0.0,1.0,0.0,1.0,1.0,1.0, 1.0
777,0.0228,0.132,3.45,0.132,3.45,0.4859602998735913,0.0,0.8739808847719549,-0.0,1.0,0.0,1.0,1.0,1.0, 1.0
778,0.0228,0.132,3.45,0.132,3.45,0.44139930612783285,0.0,0.8973107892753032,-0.0,1.0,0.0,1.0,1.0,1.0, 1.0
779,0.0228,0.132,3.45,0.132,3.45,0.40303926199389417,0.0,0.9151826884788726,-0.0,1.0,0.0,1.0,1.0,1.0, 1.0
780,0.0228,0.132,3.45,0.132,3.45,0.3727700859062494,0.0,0.9279237377357298,-0.0,1.0,0.0,1.0,1.0,1.0, 1.0
781,0.0228,0.132,3.45,0.132,3.45,0.9942293271640319,0.0,0.10727555642808946,-0.0,1.0,0.0,1.0,1.0,1.0, 1.0
782,0.0228,0.132,3.45,0.132,3.45,0.9517685902977441,0.0,0.30681680286882124,-0.0,1.0,0.0,1.0,1.0,1.0, 1.0
783,0.0228,0.132,3.45,0.132,3.45,0.8811989685432653,0.0,0.47274557410755874,-0.0,1.0,0.0,1.0,1.0,1.0, 1.0
784,0.0228,0.132,3.45,0.132,3.45,0.7992162475652917,0.0,0.6010435838004214,-0.0,1.0,0.0,1.0,1.0,1.0, 1.0
785,0.0228,0.132,3.45,0.132,3.45,0.7174679750960501,0.0,0.6965914905535192,-0.0,1.0,0.0,1.0,1.0,1.0, 1.0
786,0.0228,0.132,3.45,0.132,3.45,0.6416995732824926,0.0,0.7669560989059718,-0.0,1.0,0.0,1.0,1.0,1.0, 1.0
787,0.0228,0.132,3.45,0.132,3.45,0.5735693898333615,0.0,0.8191569782686255,-0.0,1.0,0.0,1.0,1.0,1.0, 1.0
788,0.0228,0.132,3.45,0.132,3.45,0.5130593586900033,0.0,0.8583531292309725,-0.0,1.0,0.0,1.0,1.0,1.0, 1.0
789,0.0228,0.132,3.45,0.132,3.45,0.45952777783386817,0.0,0.8881633979167725,-0.0,1.0,0.0,1.0,1.0,1.0, 1.0
790,0.0228,0.132,3.45,0.132,3.45,0.4122711753477853,0.0,0.9110611823458157,-0.0,1.0,0.0,1.0,1.0,1.0, 1.0
791,0.0228,0.132,3.45,0.132,3.45,0.37092436766128767,0.0,0.9286630785570589,-0.0,1.0,0.0,1.0,1.0,1.0, 1.0
792,0.0228,0.132,3.45,0.132,3.45,0.3359497571638383,0.0,0.9418799077703899,-0.0,1.0,0.0,1.0,1.0,1.0, 1.0
793,0.0228,0.132,3.45,0.132,3.45,0.3086958221099162,0.0,0.9511608115412886,-0.0,1.0,0.0,1.0,1.0,1.0, 1.0
794,0.0228,0.132,3.45,0.132,3.45,0.9904104920083021,0.0,0.13815591670237293,-0.0,1.0,0.0,1.0,1.0,1.0, 1.0
795,0.0228,0.132,3.45,0.132,3.45,0.9231269565493694,0.0,0.3844952822752169,-0.0,1.0,0.0,1.0,1.0,1.0, 1.0
796,0.0228,0.132,3.45,0.132,3.45,0.8219950196903967,0.0,0.5694946774151487,-0.0,1.0,0.0,1.0,1.0,1.0, 1.0
797,0.0228,0.132,3.45,0.132,3.45,0.7178604410292495,0.0,0.6961870346431993,-0.0,1.0,0.0,1.0,1.0,1.0, 1.0
798,0.0228,0.132,3.45,0.132,3.45,0.624819030241874,0.0,0.7807696071490002,-0.0,1.0,0.0,1.0,1.0,1.0, 1.0
799,0.0228,0.132,3.45,0.132,3.45,0.5454493289760091,0.0,0.838143800024567,-0.0,1.0,0.0,1.0,1.0,1.0, 1.0
800,0.0228,0.132,3.45,0.132,3.45,0.47847280599842573,0.0,0.8781023709795986,-0.0,1.0,0.0,1.0,1.0,1.0, 1.0
801,0.0228,0.132,3.45,0.132,3.45,0.42158321251907027,0.0,0.9067897192415121,-0.0,1.0,0.0,1.0,1.0,1.0, 1.0
802,0.0228,0.132,3.45,0.132,3.45,0.372876830902643,0.0,0.92788084848002,-0.0,1.0,0.0,1.0,1.0,1.0, 1.0
803,0.0228,0.132,3.45,0.132,3.45,0.33100260877212767,0.0,0.9436298389654948,-0.0,1.0,0.0,1.0,1.0,1.0, 1.0
804,0.0228,0.132,3.45,0.132,3.45,0.2951273221537676,0.0,0.9554579340391424,-0.0,1.0,0.0,1.0,1.0,1.0, 1.0
805,0.0228,0.132,3.45,0.132,3.45,0.26527491528432745,0.0,0.9641728161076172,-0.0,1.0,0.0,1.0,1.0,1.0, 1.0
806,0.0228,0.132,3.45,0.132,3.45,0.2422835003639138,0.0,0.9702054965064923,-0.0,1.0,0.0,1.0,1.0,1.0, 1.0
807,0.0228,0.132,3.45,0.132,3.45,0.9812451502828047,0.0,0.19276398793985342,-0.0,1.0,0.0,1.0,1.0,1.0, 1.0
808,0.0228,0.132,3.45,0.132,3.45,0.8623053173849441,0.0,0.5063887238176326,-0.0,1.0,0.0,1.0,1.0,1.0, 1.0
809,0.0228,0.132,3.45,0.132,3.45,0.715638667095117,0.0,0.6984706852533785,-0.0,1.0,0.0,1.0,1.0,1.0, 1.0
810,0.0228,0.132,3.45,0.132,3.45,0.5913678574091316,0.0,0.8064019203990855,-0.0,1.0,0.0,1.0,1.0,1.0, 1.0
811,0.0228,0.132,3.45,0.132,3.45,0.4954313307615271,0.0,0.8686471070002262,-0.0,1.0,0.0,1.0,1.0,1.0, 1.0
812,0.0228,0.132,3.45,0.132,3.45,0.42160966658622173,0.0,0.9067774197900249,-0.0,1.0,0.0,1.0,1.0,1.0, 1.0
813,0.0228,0.132,3.45,0.132,3.45,0.3631716795674076,0.0,0.9317222392753048,-0.0,1.0,0.0,1.0,1.0,1.0, 1.0
814,0.0228,0.132,3.45,0.132,3.45,0.3155784382894916,0.0,0.9488994937751656,-0.0,1.0,0.0,1.0,1.0,1.0, 1.0
815,0.0228,0.132,3.45,0.132,3.45,0.2760298161543755,0.0,0.9611490730338254,-0.0,1.0,0.0,1.0,1.0,1.0, 1.0
816,0.0228,0.132,3.45,0.132,3.45,0.242730376463698,0.0,0.9700937915180117,-0.0,1.0,0.0,1.0,1.0,1.0, 1.0
817,0.0228,0.132,3.45,0.132,3.45,0.2147130732768231,0.0,0.9766771709034779,-0.0,1.0,0.0,1.0,1.0,1.0, 1.0
818,0.0228,0.132,3.45,0.132,3.45,0.19172031430005282,0.0,0.9814496019076521,-0.0,1.0,0.0,1.0,1.0,1.0, 1.0
819,0.0228,0.132,3.45,0.132,3.45,0.1741835208354213,0.0,0.9847132075225641,-0.0,1.0,0.0,1.0,1.0,1.0, 1.0
820,0.0228,0.132,3.45,0.132,3.45,0.9496983053021361,0.0,0.31316629592957607,-0.0,1.0,0.0,1.0,1.0,1.0, 1.0
821,0.0228,0.132,3.45,0.132,3.45,0.7118850147377261,0.0,0.7022960385705357,-0.0,1.0,0.0,1.0,1.0,1.0, 1.0
822,0.0228,0.132,3.45,0.132,3.45,0.5210061942272048,0.0,0.8535528955939897,-0.0,1.0,0.0,1.0,1.0,1.0, 1.0
823,0.0228,0.132,3.45,0.132,3.45,0.40097551438651646,0.0,0.9160887712784545,-0.0,1.0,0.0,1.0,1.0,1.0, 1.0
824,0.0228,0.132,3.45,0.132,3.45,0.3230318381574403,0.0,0.9463880977361379,-0.0,1.0,0.0,1.0,1.0,1.0, 1.0
825,0.0228,0.132,3.45,0.132,3.45,0.2687629899369509,0.0,0.9632063409468141,-0.0,1.0,0.0,1.0,1.0,1.0, 1.0
826,0.0228,0.132,3.45,0.132,3.45,0.22817627342882962,0.0,0.9736198376389689,-0.0,1.0,0.0,1.0,1.0,1.0, 1.0
827,0.0228,0.132,3.45,0.132,3.45,0.196214317647119,0.0,0.9805610340770612,-0.0,1.0,0.0,1.0,1.0,1.0, 1.0
828,0.0228,0.132,3.45,0.132,3.45,0.17017908064681142,0.0,0.9854131521905957,-0.0,1.0,0.0,1.0,1.0,1.0, 1.0
829,0.0228,0.132,3.45,0.132,3.45,0.1485972405060359,0.0,0.9888978006417,-0.0,1.0,0.0,1.0,1.0,1.0, 1.0
830,0.0228,0.132,3.45,0.132,3.45,0.13064761242776765,0.0,0.9914288685361768,-0.0,1.0,0.0,1.0,1.0,1.0, 1.0
831,0.0228,0.132,3.45,0.132,3.45,0.11606081322143007,0.0,0.9932421092736555,-0.0,1.0,0.0,1.0,1.0,1.0, 1.0
832,0.0228,0.132,3.45,0.132,3.45,0.10500843748566105,0.0,0.9944713309376094,-0.0,1.0,0.0,1.0,1.0,1.0, 1.0
833,0.0228,0.132,3.45,0.132,3.45,0.7082792068490744,0.0,0.705932408340378,-0.0,1.0,0.0,1.0,1.0,1.0, 1.0
834,0.0228,0.132,3.45,0.132,3.45,0.3184244355979713,0.0,0.9479482469070311,-0.0,1.0,0.0,1.0,1.0,1.0, 1.0
835,0.0228,0.132,3.45,0.132,3.45,0.19827533664181063,0.0,0.9801463619682402,-0.0,1.0,0.0,1.0,1.0,1.0, 1.0
836,0.0228,0.132,3.45,0.132,3.45,0.14378479286745516,0.0,0.9896089800219393,-0.0,1.0,0.0,1.0,1.0,1.0, 1.0
837,0.0228,0.132,3.45,0.132,3.45,0.11304375848168943,0.0,0.9935900103505135,-0.0,1.0,0.0,1.0,1.0,1.0, 1.0
838,0.0228,0.132,3.45,0.132,3.45,0.09269050318501987,0.0,0.9956949686622443,-0.0,1.0,0.0,1.0,1.0,1.0, 1.0
839,0.0228,0.132,3.45,0.132,3.45,0.07811049417707533,0.0,0.9969447079449356,-0.0,1.0,0.0,1.0,1.0,1.0, 1.0
840,0.0228,0.132,3.45,0.132,3.45,0.06684053398833197,0.0,0.9977636709242097,-0.0,1.0,0.0,1.0,1.0,1.0, 1.0
841,0.0228,0.132,3.45,0.132,3.45,0.057687834188912754,0.0,0.9983346702316777,-0.0,1.0,0.0,1.0,1.0,1.0, 1.0
842,0.0228,0.132,3.45,0.132,3.45,0.05018939956768012,0.0,0.99873971793007,-0.0,1.0,0.0,1.0,1.0,1.0, 1.0
843,0.0228,0.132,3.45,0.132,3.45,0.04397494764163566,0.0,0.9990326340915573,-0.0,1.0,0.0,1.0,1.0,1.0, 1.0
844,0.0228,0.132,3.45,0.132,3.45,0.038946023271712725,0.0,0.9992413158348284,-0.0,1.0,0.0,1.0,1.0,1.0, 1.0
845,0.0228,0.132,3.45,0.132,3.45,0.03514257862071457,0.0,0.9993823088127421,-0.0,1.0,0.0,1.0,1.0,1.0, 1.0
846,0.0228,0.132,3.45,0.132,3.45,0.9993708844198452,0.0,0.03546597487587625,-0.0,1.0,0.0,1.0,1.0,1.0, 1.0
847,0.0228,0.132,3.45,0.132,3.45,0.9943347574668729,0.0,0.10629388549345169,-0.0,1.0,0.0,1.0,1.0,1.0, 1.0
848,0.0228,0.132,3.45,0.132,3.45,0.9843147284597369,0.0,0.17642141405519476,-0.0,1.0,0.0,1.0,1.0,1.0, 1.0
849,0.0228,0.132,3.45,0.132,3.45,0.9694420398401433,0.0,0.24532046671768326,-0.0,1.0,0.0,1.0,1.0,1.0, 1.0
850,0.0228,0.132,3.45,0.132,3.45,0.9499451415299497,0.0,0.3124167538459548,-0.0,1.0,0.0,1.0,1.0,1.0, 1.0
851,0.0228,0.132,3.45,0.132,3.45,0.9261804230104539,0.0,0.3770806598490258,-0.0,1.0,0.0,1.0,1.0,1.0, 1.0
852,0.0228,0.132,3.45,0.132,3.45,0.8986351750921472,0.0,0.43869673133852505,-0.0,1.0,0.0,1.0,1.0,1.0, 1.0
853,0.0228,0.132,3.45,0.132,3.45,0.8679170929918127,0.0,0.4967090896013893,-0.0,1.0,0.0,1.0,1.0,1.0, 1.0
854,0.0228,0.132,3.45,0.132,3.45,0.8347822528915918,0.0,0.5505802305361487,-0.0,1.0,0.0,1.0,1.0,1.0, 1.0
855,0.0228,0.132,3.45,0.132,3.45,0.800210722551849,0.0,0.5997189337623481,-0.0,1.0,0.0,1.0,1.0,1.0, 1.0
856,0.0228,0.132,3.45,0.132,3.45,0.765620834937938,0.0,0.6432921086947474,-0.0,1.0,0.0,1.0,1.0,1.0, 1.0
857,0.0228,0.132,3.45,0.132,3.45,0.7333255673668527,0.0,0.6798776450554052,-0.0,1.0,0.0,1.0,1.0,1.0, 1.0
858,0.0228,0.132,3.45,0.132,3.45,0.707166897264368,0.0,0.7070466599974055,-0.0,1.0,0.0,1.0,1.0,1.0, 1.0
859,0.0228,0.132,3.45,0.132,3.45,0.9992491767669349,0.0,0.03874380893256376,-0.0,1.0,0.0,1.0,1.0,1.0, 1.0
860,0.0228,0.132,3.45,0.132,3.45,0.9932583936541293,0.0,0.11592136746785929,-0.0,1.0,0.0,1.0,1.0,1.0, 1.0
861,0.0228,0.132,3.45,0.132,3.45,0.9814246580960254,0.0,0.19184796188935577,-0.0,1.0,0.0,1.0,1.0,1.0, 1.0
862,0.0228,0.132,3.45,0.132,3.45,0.9640389014627729,0.0,0.2657611643307761,-0.0,1.0,0.0,1.0,1.0,1.0, 1.0
863,0.0228,0.132,3.45,0.132,3.45,0.9415329759605408,0.0,0.3369208440849096,-0.0,1.0,0.0,1.0,1.0,1.0, 1.0
864,0.0228,0.132,3.45,0.132,3.45,0.9144914858718804,0.0,0.40460514364975647,-0.0,1.0,0.0,1.0,1.0,1.0, 1.0
865,0.0228,0.132,3.45,0.132,3.45,0.8836270296057593,0.0,0.4681914913260411,-0.0,1.0,0.0,1.0,1.0,1.0, 1.0
866,0.0228,0.132,3.45,0.132,3.45,0.8497532145593323,0.0,0.527180684724015,-0.0,1.0,0.0,1.0,1.0,1.0, 1.0
867,0.0228,0.132,3.45,0.132,3.45,0.8138050848454327,0.0,0.5811379215639934,-0.0,1.0,0.0,1.0,1.0,1.0, 1.0
868,0.0228,0.132,3.45,0.132,3.45,0.7769196209328658,0.0,0.6295997955920348,-0.0,1.0,0.0,1.0,1.0,1.0, 1.0
869,0.0228,0.132,3.45,0.132,3.45,0.7406331794750581,0.0,0.6719095872665207,-0.0,1.0,0.0,1.0,1.0,1.0, 1.0
870,0.0228,0.132,3.45,0.132,3.45,0.7072729606536353,0.0,0.7069405626559007,-0.0,1.0,0.0,1.0,1.0,1.0, 1.0
871,0.0228,0.132,3.45,0.132,3.45,0.680075338050359,0.0,0.733142233523407,-0.0,1.0,0.0,1.0,1.0,1.0, 1.0
872,0.0228,0.132,3.45,0.132,3.45,0.9990759308586794,0.0,0.042980046287354495,-0.0,1.0,0.0,1.0,1.0,1.0, 1.0
873,0.0228,0.132,3.45,0.132,3.45,0.9917259223251382,0.0,0.1283732643051254,-0.0,1.0,0.0,1.0,1.0,1.0, 1.0
874,0.0228,0.132,3.45,0.132,3.45,0.9773289488968047,0.0,0.2117265350594184,-0.0,1.0,0.0,1.0,1.0,1.0, 1.0
875,0.0228,0.132,3.45,0.132,3.45,0.9564419266365607,0.0,0.29192266265527256,-0.0,1.0,0.0,1.0,1.0,1.0, 1.0
876,0.0228,0.132,3.45,0.132,3.45,0.9298231792629787,0.0,0.3680065968230549,-0.0,1.0,0.0,1.0,1.0,1.0, 1.0
877,0.0228,0.132,3.45,0.132,3.45,0.8984020051709907,0.0,0.4391740396525539,-0.0,1.0,0.0,1.0,1.0,1.0, 1.0
878,0.0228,0.132,3.45,0.132,3.45,0.8632095866194347,0.0,0.5048457284837664,-0.0,1.0,0.0,1.0,1.0,1.0, 1.0
879,0.0228,0.132,3.45,0.132,3.45,0.8253185420381034,0.0,0.564667427932672,-0.0,1.0,0.0,1.0,1.0,1.0, 1.0
880,0.0228,0.132,3.45,0.132,3.45,0.7858544954974485,0.0,0.6184114422505866,-0.0,1.0,0.0,1.0,1.0,1.0, 1.0
881,0.0228,0.132,3.45,0.132,3.45,0.7460709078188211,0.0,0.6658665035173343,-0.0,1.0,0.0,1.0,1.0,1.0, 1.0
882,0.0228,0.132,3.45,0.132,3.45,0.7075441117314463,0.0,0.7066691799945423,-0.0,1.0,0.0,1.0,1.0,1.0, 1.0
883,0.0228,0.132,3.45,0.132,3.45,0.672475373598743,0.0,0.7401194983941655,-0.0,1.0,0.0,1.0,1.0,1.0, 1.0
884,0.0228,0.132,3.45,0.132,3.45,0.643620077238801,0.0,0.7653451483971919,-0.0,1.0,0.0,1.0,1.0,1.0, 1.0
885,0.0228,0.132,3.45,0.132,3.45,0.9988369235425069,0.0,0.048216181600582726,-0.0,1.0,0.0,1.0,1.0,1.0, 1.0
886,0.0228,0.132,3.45,0.132,3.45,0.989615282661498,0.0,0.14374140782253175,-0.0,1.0,0.0,1.0,1.0,1.0, 1.0
887,0.0228,0.132,3.45,0.132,3.45,0.9717320798267056,0.0,0.2360863508033983,-0.0,1.0,0.0,1.0,1.0,1.0, 1.0
888,0.0228,0.132,3.45,0.132,3.45,0.9461854410061514,0.0,0.32362495458168034,-0.0,1.0,0.0,1.0,1.0,1.0, 1.0
889,0.0228,0.132,3.45,0.132,3.45,0.9142464154322759,0.0,0.405158600882709,-0.0,1.0,0.0,1.0,1.0,1.0, 1.0
890,0.0228,0.132,3.45,0.132,3.45,0.8773406271026906,0.0,0.47986813192277916,-0.0,1.0,0.0,1.0,1.0,1.0, 1.0
891,0.0228,0.132,3.45,0.132,3.45,0.8369173906756309,0.0,0.5473292255897664,-0.0,1.0,0.0,1.0,1.0,1.0, 1.0
892,0.0228,0.132,3.45,0.132,3.45,0.7943613385784369,0.0,0.607445523295607,-0.0,1.0,0.0,1.0,1.0,1.0, 1.0
893,0.0228,0.132,3.45,0.132,3.45,0.750982427814255,0.0,0.6603221888701056,-0.0,1.0,0.0,1.0,1.0,1.0, 1.0
894,0.0228,0.132,3.45,0.132,3.45,0.7080884065556408,0.0,0.7061237912020054,-0.0,1.0,0.0,1.0,1.0,1.0, 1.0
895,0.0228,0.132,3.45,0.132,3.45,0.6672286782876317,0.0,0.7448529323769492,-0.0,1.0,0.0,1.0,1.0,1.0, 1.0
896,0.0228,0.132,3.45,0.132,3.45,0.6304713301750952,0.0,0.7762125365048198,-0.0,1.0,0.0,1.0,1.0,1.0, 1.0
897,0.0228,0.132,3.45,0.132,3.45,0.6002255585985061,0.0,0.7998307813563511,-0.0,1.0,0.0,1.0,1.0,1.0, 1.0
898,0.0228,0.132,3.45,0.132,3.45,0.9985066607065408,0.0,0.054630106394489064,-0.0,1.0,0.0,1.0,1.0,1.0, 1.0
899,0.0228,0.132,3.45,0.132,3.45,0.9867133861650936,0.0,0.1624705929164258,-0.0,1.0,0.0,1.0,1.0,1.0, 1.0
900,0.0228,0.132,3.45,0.132,3.45,0.9641305818072434,0.0,0.26542837305764133,-0.0,1.0,0.0,1.0,1.0,1.0, 1.0
901,0.0228,0.132,3.45,0.132,3.45,0.9324911274856139,0.0,0.3611928808276933,-0.0,1.0,0.0,1.0,1.0,1.0, 1.0
902,0.0228,0.132,3.45,0.132,3.45,0.8938653660168465,0.0,0.44833548536287976,-0.0,1.0,0.0,1.0,1.0,1.0, 1.0
903,0.0228,0.132,3.45,0.132,3.45,0.8503776362761947,0.0,0.5261728572639527,-0.0,1.0,0.0,1.0,1.0,1.0, 1.0
904,0.0228,0.132,3.45,0.132,3.45,0.8039866888388955,0.0,0.5946472939229347,-0.0,1.0,0.0,1.0,1.0,1.0, 1.0
905,0.0228,0.132,3.45,0.132,3.45,0.7564051157351256,0.0,0.6541034328680223,-0.0,1.0,0.0,1.0,1.0,1.0, 1.0
906,0.0228,0.132,3.45,0.132,3.45,0.7090654918645694,0.0,0.7051426297188793,-0.0,1.0,0.0,1.0,1.0,1.0, 1.0
907,0.0228,0.132,3.45,0.132,3.45,0.6632521146704231,0.0,0.7483960397979214,-0.0,1.0,0.0,1.0,1.0,1.0, 1.0
908,0.0228,0.132,3.45,0.132,3.45,0.6204071692019273,0.0,0.7842798890720397,-0.0,1.0,0.0,1.0,1.0,1.0, 1.0
909,0.0228,0.132,3.45,0.132,3.45,0.5823876046963953,0.0,0.8129112361728034,-0.0,1.0,0.0,1.0,1.0,1.0, 1.0
910,0.0228,0.132,3.45,0.132,3.45,0.551295619147524,0.0,0.8343099785503876,-0.0,1.0,0.0,1.0,1.0,1.0, 1.0
911,0.0228,0.132,3.45,0.132,3.45,0.9980377681188658,0.0,0.06261480183082047,-0.0,1.0,0.0,1.0,1.0,1.0, 1.0
912,0.0228,0.132,3.45,0.132,3.45,0.9826305412243588,0.0,0.18557267970561747,-0.0,1.0,0.0,1.0,1.0,1.0, 1.0
913,0.0228,0.132,3.45,0.132,3.45,0.9536228272810173,0.0,0.30100415825792015,-0.0,1.0,0.0,1.0,1.0,1.0, 1.0
914,0.0228,0.132,3.45,0.132,3.45,0.9140076001956451,0.0,0.40569706282471135,-0.0,1.0,0.0,1.0,1.0,1.0, 1.0
915,0.0228,0.132,3.45,0.132,3.45,0.8670969838157594,0.0,0.49813935867145914,-0.0,1.0,0.0,1.0,1.0,1.0, 1.0
916,0.0228,0.132,3.45,0.132,3.45,0.8159620525098663,0.0,0.5781054651738611,-0.0,1.0,0.0,1.0,1.0,1.0, 1.0
917,0.0228,0.132,3.45,0.132,3.45,0.7631262787428701,0.0,0.646249396666689,-0.0,1.0,0.0,1.0,1.0,1.0, 1.0
918,0.0228,0.132,3.45,0.132,3.45,0.7105398250914555,0.0,0.7036569881405313,-0.0,1.0,0.0,1.0,1.0,1.0, 1.0
919,0.0228,0.132,3.45,0.132,3.45,0.6596152928756805,0.0,0.7516033963497838,-0.0,1.0,0.0,1.0,1.0,1.0, 1.0
920,0.0228,0.132,3.45,0.132,3.45,0.6115000473471441,0.0,0.7912443946685755,-0.0,1.0,0.0,1.0,1.0,1.0, 1.0
921,0.0228,0.132,3.45,0.132,3.45,0.5674064065396327,0.0,0.8234378967583295,-0.0,1.0,0.0,1.0,1.0,1.0, 1.0
922,0.0228,0.132,3.45,0.132,3.45,0.5288587290848326,0.0,0.8487098707277863,-0.0,1.0,0.0,1.0,1.0,1.0, 1.0
923,0.0228,0.132,3.45,0.132,3.45,0.4976426611991365,0.0,0.8673821428612888,-0.0,1.0,0.0,1.0,1.0,1.0, 1.0
924,0.0228,0.132,3.45,0.132,3.45,0.9973409440939803,0.0,0.0728768909444421,-0.0,1.0,0.0,1.0,1.0,1.0, 1.0
925,0.0228,0.132,3.45,0.132,3.45,0.9766461509396468,0.0,0.21485412692050548,-0.0,1.0,0.0,1.0,1.0,1.0, 1.0
926,0.0228,0.132,3.45,0.132,3.45,0.9386075298581646,0.0,0.3449868184344938,-0.0,1.0,0.0,1.0,1.0,1.0, 1.0
927,0.0228,0.132,3.45,0.132,3.45,0.8884528261429542,0.0,0.4589679462866635,-0.0,1.0,0.0,1.0,1.0,1.0, 1.0
928,0.0228,0.132,3.45,0.132,3.45,0.8314159424196438,0.0,0.5556505472781031,-0.0,1.0,0.0,1.0,1.0,1.0, 1.0
929,0.0228,0.132,3.45,0.132,3.45,0.7717535811649828,0.0,0.6359217011228854,-0.0,1.0,0.0,1.0,1.0,1.0, 1.0
930,0.0228,0.132,3.45,0.132,3.45,0.712450326282802,0.0,0.7017225467230828,-0.0,1.0,0.0,1.0,1.0,1.0, 1.0
931,0.0228,0.132,3.45,0.132,3.45,0.655434820815117,0.0,0.7552517432373498,-0.0,1.0,0.0,1.0,1.0,1.0, 1.0
932,0.0228,0.132,3.45,0.132,3.45,0.6018698582283659,0.0,0.798594185901805,-0.0,1.0,0.0,1.0,1.0,1.0, 1.0
933,0.0228,0.132,3.45,0.132,3.45,0.5525587060682383,0.0,0.8334739806065898,-0.0,1.0,0.0,1.0,1.0,1.0, 1.0
934,0.0228,0.132,3.45,0.132,3.45,0.5083231906851193,0.0,0.8611663798661092,-0.0,1.0,0.0,1.0,1.0,1.0, 1.0
935,0.0228,0.132,3.45,0.132,3.45,0.4702901576009775,0.0,0.882511851287929,-0.0,1.0,0.0,1.0,1.0,1.0, 1.0
936,0.0228,0.132,3.45,0.132,3.45,0.4398486910779402,0.0,0.8980718952049567,-0.0,1.0,0.0,1.0,1.0,1.0, 1.0
937,0.0228,0.132,3.45,0.132,3.45,0.9962359917469261,0.0,0.08668245928686186,-0.0,1.0,0.0,1.0,1.0,1.0, 1.0
938,0.0228,0.132,3.45,0.132,3.45,0.9673542179964396,0.0,0.2534281297024797,-0.0,1.0,0.0,1.0,1.0,1.0, 1.0
939,0.0228,0.132,3.45,0.132,3.45,0.91614952400991,0.0,0.40083668701406977,-0.0,1.0,0.0,1.0,1.0,1.0, 1.0
940,0.0228,0.132,3.45,0.132,3.45,0.8519734601572887,0.0,0.5235849722706114,-0.0,1.0,0.0,1.0,1.0,1.0, 1.0
941,0.0228,0.132,3.45,0.132,3.45,0.7829274101342276,0.0,0.6221130688713354,-0.0,1.0,0.0,1.0,1.0,1.0, 1.0
942,0.0228,0.132,3.45,0.132,3.45,0.714435450061971,0.0,0.6997013560761112,-0.0,1.0,0.0,1.0,1.0,1.0, 1.0
943,0.0228,0.132,3.45,0.132,3.45,0.6494878082394933,0.0,0.7603720056316244,-0.0,1.0,0.0,1.0,1.0,1.0, 1.0
944,0.0228,0.132,3.45,0.132,3.45,0.5894897740163075,0.0,0.8077758391597278,-0.0,1.0,0.0,1.0,1.0,1.0, 1.0
945,0.0228,0.132,3.45,0.132,3.45,0.5349707103790156,0.0,0.8448706049073854,-0.0,1.0,0.0,1.0,1.0,1.0, 1.0
946,0.0228,0.132,3.45,0.132,3.45,0.48613147129006556,0.0,0.8738856862435476,-0.0,1.0,0.0,1.0,1.0,1.0, 1.0
947,0.0228,0.132,3.45,0.132,3.45,0.4432662599054716,0.0,0.8963899948289332,-0.0,1.0,0.0,1.0,1.0,1.0, 1.0
948,0.0228,0.132,3.45,0.132,3.45,0.40704469662674814,0.0,0.9134082411211532,-0.0,1.0,0.0,1.0,1.0,1.0, 1.0
949,0.0228,0.132,3.45,0.132,3.45,0.3784036339292607,0.0,0.9256406915370187,-0.0,1.0,0.0,1.0,1.0,1.0, 1.0
950,0.0228,0.132,3.45,0.132,3.45,0.9943195796021653,0.0,0.1064357722749894,-0.0,1.0,0.0,1.0,1.0,1.0, 1.0
951,0.0228,0.132,3.45,0.132,3.45,0.9517825027765102,0.0,0.3067736419715392,-0.0,1.0,0.0,1.0,1.0,1.0, 1.0
952,0.0228,0.132,3.45,0.132,3.45,0.8806321930026,0.0,0.4738005283317352,-0.0,1.0,0.0,1.0,1.0,1.0, 1.0
953,0.0228,0.132,3.45,0.132,3.45,0.7980306102214282,0.0,0.6026169140918756,-0.0,1.0,0.0,1.0,1.0,1.0, 1.0
954,0.0228,0.132,3.45,0.132,3.45,0.7157938077184673,0.0,0.6983116960440359,-0.0,1.0,0.0,1.0,1.0,1.0, 1.0
955,0.0228,0.132,3.45,0.132,3.45,0.6396360207375453,0.0,0.7686779305892933,-0.0,1.0,0.0,1.0,1.0,1.0, 1.0
956,0.0228,0.132,3.45,0.132,3.45,0.5713848557387541,0.0,0.8206822446187094,-0.0,1.0,0.0,1.0,1.0,1.0, 1.0
957,0.0228,0.132,3.45,0.132,3.45,0.5110845998093778,0.0,0.859530413561782,-0.0,1.0,0.0,1.0,1.0,1.0, 1.0
958,0.0228,0.132,3.45,0.132,3.45,0.45817241709929973,0.0,0.8888633394450384,-0.0,1.0,0.0,1.0,1.0,1.0, 1.0
959,0.0228,0.132,3.45,0.132,3.45,0.41205997151121326,0.0,0.9111567262980491,-0.0,1.0,0.0,1.0,1.0,1.0, 1.0
960,0.0228,0.132,3.45,0.132,3.45,0.3724539782653113,0.0,0.9280506635277749,-0.0,1.0,0.0,1.0,1.0,1.0, 1.0
961,0.0228,0.132,3.45,0.132,3.45,0.33953979503418863,0.0,0.9405916901547351,-0.0,1.0,0.0,1.0,1.0,1.0, 1.0
962,0.0228,0.132,3.45,0.132,3.45,0.31381988652822057,0.0,0.9494825321296936,-0.0,1.0,0.0,1.0,1.0,1.0, 1.0
963,0.0228,0.132,3.45,0.132,3.45,0.9905420982365633,0.0,0.1372091528328432,-0.0,1.0,0.0,1.0,1.0,1.0, 1.0
964,0.0228,0.132,3.45,0.132,3.45,0.9229434702181855,0.0,0.38493551509520857,-0.0,1.0,0.0,1.0,1.0,1.0, 1.0
965,0.0228,0.132,3.45,0.132,3.45,0.8208165630832163,0.0,0.5711918852437037,-0.0,1.0,0.0,1.0,1.0,1.0, 1.0
966,0.0228,0.132,3.45,0.132,3.45,0.7157216648366245,0.0,0.6983856373691334,-0.0,1.0,0.0,1.0,1.0,1.0, 1.0
967,0.0228,0.132,3.45,0.132,3.45,0.6219089348824486,0.0,0.7830895713220667,-0.0,1.0,0.0,1.0,1.0,1.0, 1.0
968,0.0228,0.132,3.45,0.132,3.45,0.5422335201858036,0.0,0.8402278319520913,-0.0,1.0,0.0,1.0,1.0,1.0, 1.0
969,0.0228,0.132,3.45,0.132,3.45,0.4753185116587446,0.0,0.8798137942056353,-0.0,1.0,0.0,1.0,1.0,1.0, 1.0
970,0.0228,0.132,3.45,0.132,3.45,0.41891608482676,0.0,0.9080249522306195,-0.0,1.0,0.0,1.0,1.0,1.0, 1.0
971,0.0228,0.132,3.45,0.132,3.45,0.37109660398843936,0.0,0.9285942658170183,-0.0,1.0,0.0,1.0,1.0,1.0, 1.0
972,0.0228,0.132,3.45,0.132,3.45,0.3304877483871895,0.0,0.943810281871291,-0.0,1.0,0.0,1.0,1.0,1.0, 1.0
973,0.0228,0.132,3.45,0.132,3.45,0.296299990694882,0.0,0.955094924870933,-0.0,1.0,0.0,1.0,1.0,1.0, 1.0
974,0.0228,0.132,3.45,0.132,3.45,0.2683144862024465,0.0,0.9633313741874688,-0.0,1.0,0.0,1.0,1.0,1.0, 1.0
975,0.0228,0.132,3.45,0.132,3.45,0.24667469474989528,0.0,0.9690983412275794,-0.0,1.0,0.0,1.0,1.0,1.0, 1.0
976,0.0228,0.132,3.45,0.132,3.45,0.9814635572918325,0.0,0.19164886044029053,-0.0,1.0,0.0,1.0,1.0,1.0, 1.0
977,0.0228,0.132,3.45,0.132,3.45,0.8620019813854369,0.0,0.5069049063557985,-0.0,1.0,0.0,1.0,1.0,1.0, 1.0
978,0.0228,0.132,3.45,0.132,3.45,0.7139692733610915,0.0,0.7001770323969754,-0.0,1.0,0.0,1.0,1.0,1.0, 1.0
979,0.0228,0.132,3.45,0.132,3.45,0.5885534431156513,0.0,0.808458313456366,-0.0,1.0,0.0,1.0,1.0,1.0, 1.0
980,0.0228,0.132,3.45,0.132,3.45,0.49187820975489893,0.0,0.8706640148578071,-0.0,1.0,0.0,1.0,1.0,1.0, 1.0
981,0.0228,0.132,3.45,0.132,3.45,0.4177090030343255,0.0,0.9085808652971236,-0.0,1.0,0.0,1.0,1.0,1.0, 1.0
982,0.0228,0.132,3.45,0.132,3.45,0.3594986007233038,0.0,0.9331456242612868,-0.0,1.0,0.0,1.0,1.0,1.0, 1.0
983,0.0228,0.132,3.45,0.132,3.45,0.31260121601236845,0.0,0.9498844559985117,-0.0,1.0,0.0,1.0,1.0,1.0, 1.0
984,0.0228,0.132,3.45,0.132,3.45,0.27404427424411737,0.0,0.9617170767715498,-0.0,1.0,0.0,1.0,1.0,1.0, 1.0
985,0.0228,0.132,3.45,0.132,3.45,0.2420093929544686,0.0,0.9702739065448528,-0.0,1.0,0.0,1.0,1.0,1.0, 1.0
986,0.0228,0.132,3.45,0.132,3.45,0.21547677389888245,0.0,0.9765089656066297,-0.0,1.0,0.0,1.0,1.0,1.0, 1.0
987,0.0228,0.132,3.45,0.132,3.45,0.19401742011913806,0.0,0.980998083938146,-0.0,1.0,0.0,1.0,1.0,1.0, 1.0
988,0.0228,0.132,3.45,0.132,3.45,0.17756335656059957,0.0,0.9841093711610175,-0.0,1.0,0.0,1.0,1.0,1.0, 1.0
989,0.0228,0.132,3.45,0.132,3.45,0.9501465098101315,0.0,0.3118038003226159,-0.0,1.0,0.0,1.0,1.0,1.0, 1.0
990,0.0228,0.132,3.45,0.132,3.45,0.7112345734397587,0.0,0.7029547507087242,-0.0,1.0,0.0,1.0,1.0,1.0, 1.0
991,0.0228,0.132,3.45,0.132,3.45,0.5189012810604995,0.0,0.8548341713535863,-0.0,1.0,0.0,1.0,1.0,1.0, 1.0
992,0.0228,0.132,3.45,0.132,3.45,0.3980188386923103,0.0,0.9173772419490386,-0.0,1.0,0.0,1.0,1.0,1.0, 1.0
993,0.0228,0.132,3.45,0.132,3.45,0.3195482797049842,0.0,0.9475699957985085,-0.0,1.0,0.0,1.0,1.0,1.0, 1.0
994,0.0228,0.132,3.45,0.132,3.45,0.265063253714886,0.0,0.9642310260150717,-0.0,1.0,0.0,1.0,1.0,1.0, 1.0
995,0.0228,0.132,3.45,0.132,3.45,0.22477818194581903,0.0,0.9744099593708658,-0.0,1.0,0.0,1.0,1.0,1.0, 1.0
996,0.0228,0.132,3.45,0.132,3.45,0.19348232653651973,0.0,0.9811037607297282,-0.0,1.0,0.0,1.0,1.0,1.0, 1.0
997,0.0228,0.132,3.45,0.132,3.45,0.16833680836858975,0.0,0.9857295364085814,-0.0,1.0,0.0,1.0,1.0,1.0, 1.0
998,0.0228,0.132,3.45,0.132,3.45,0.14776591575703224,0.0,0.9890223628111174,-0.0,1.0,0.0,1.0,1.0,1.0, 1.0
999,0.0228,0.132,3.45,0.132,3.45,0.13091079380496776,0.0,0.9913941517203706,-0.0,1.0,0.0,1.0,1.0,1.0, 1.0
1000,0.0228,0.132,3.45,0.132,3.45,0.11738354899141105,0.0,0.9930866540368877,-0.0,1.0,0.0,1.0,1.0,1.0, 1.0
1001,0.0228,0.132,3.45,0.132,3.45,0.10706138980641886,0.0,0.9942524120225799,-0.0,1.0,0.0,1.0,1.0,1.0, 1.0
1002,0.0228,0.132,3.45,0.132,3.45,0.7084056813063261,0.0,0.705805490693378,-0.0,1.0,0.0,1.0,1.0,1.0, 1.0
1003,0.0228,0.132,3.45,0.132,3.45,0.31623544038216755,0.0,0.9486807398942474,-0.0,1.0,0.0,1.0,1.0,1.0, 1.0
1004,0.0228,0.132,3.45,0.132,3.45,0.1962000557802441,0.0,0.980563887827728,-0.0,1.0,0.0,1.0,1.0,1.0, 1.0
1005,0.0228,0.132,3.45,0.132,3.45,0.14173100247187753,0.0,0.9899052090671696,-0.0,1.0,0.0,1.0,1.0,1.0, 1.0
1006,0.0228,0.132,3.45,0.132,3.45,0.11079327964575479,0.0,0.9938434731814348,-0.0,1.0,0.0,1.0,1.0,1.0, 1.0
1007,0.0228,0.132,3.45,0.132,3.45,0.09064445551251736,0.0,0.9958833178062775,-0.0,1.0,0.0,1.0,1.0,1.0, 1.0
1008,0.0228,0.132,3.45,0.132,3.45,0.07628688786073144,0.0,0.9970859094082738,-0.0,1.0,0.0,1.0,1.0,1.0, 1.0
1009,0.0228,0.132,3.45,0.132,3.45,0.06535796898451417,0.0,0.9978618821711848,-0.0,1.0,0.0,1.0,1.0,1.0, 1.0
1010,0.0228,0.132,3.45,0.132,3.45,0.05667472409778091,0.0,0.998392696111325,-0.0,1.0,0.0,1.0,1.0,1.0, 1.0
1011,0.0228,0.132,3.45,0.132,3.45,0.049624305775142645,0.0,0.9987679551709371,-0.0,1.0,0.0,1.0,1.0,1.0, 1.0
1012,0.0228,0.132,3.45,0.132,3.45,0.04386893581510024,0.0,0.9990372948346076,-0.0,1.0,0.0,1.0,1.0,1.0, 1.0
1013,0.0228,0.132,3.45,0.132,3.45,0.03925621449808101,0.0,0.9992291777281529,-0.0,1.0,0.0,1.0,1.0,1.0, 1.0
1014,0.0228,0.132,3.45,0.132,3.45,0.03573482238127259,0.0,0.999361307270488,-0.0,1.0,0.0,1.0,1.0,1.0, 1.0
1015,0.0228,0.132,3.45,0.132,3.45,0.9993725786335024,0.0,0.03541820260012979,-0.0,1.0,0.0,1.0,1.0,1.0, 1.0
1016,0.0228,0.132,3.45,0.132,3.45,0.9943508907185709,0.0,0.10614285716516625,-0.0,1.0,0.0,1.0,1.0,1.0, 1.0
1017,0.0228,0.132,3.45,0.132,3.45,0.984354601559778,0.0,0.17619880359437953,-0.0,1.0,0.0,1.0,1.0,1.0, 1.0
1018,0.0228,0.132,3.45,0.132,3.45,0.9695029548516974,0.0,0.24507962080480672,-0.0,1.0,0.0,1.0,1.0,1.0, 1.0
1019,0.0228,0.132,3.45,0.132,3.45,0.9500145190816022,0.0,0.31220572309641015,-0.0,1.0,0.0,1.0,1.0,1.0, 1.0
1020,0.0228,0.132,3.45,0.132,3.45,0.9262394635730584,0.0,0.3769356126978359,-0.0,1.0,0.0,1.0,1.0,1.0, 1.0
1021,0.0228,0.132,3.45,0.132,3.45,0.8986705416741472,0.0,0.43862427831470385,-0.0,1.0,0.0,1.0,1.0,1.0, 1.0
1022,0.0228,0.132,3.45,0.132,3.45,0.8679353876407898,0.0,0.4966771213583646,-0.0,1.0,0.0,1.0,1.0,1.0, 1.0
1023,0.0228,0.132,3.45,0.132,3.45,0.8347984478248691,0.0,0.5505556752129519,-0.0,1.0,0.0,1.0,1.0,1.0, 1.0
1024,0.0228,0.132,3.45,0.132,3.45,0.8002334586520119,0.0,0.5996885955675983,-0.0,1.0,0.0,1.0,1.0,1.0, 1.0
1025,0.0228,0.132,3.45,0.132,3.45,0.7656472125927647,0.0,0.6432607137459351,-0.0,1.0,0.0,1.0,1.0,1.0, 1.0
1026,0.0228,0.132,3.45,0.132,3.45,0.7333383309241603,0.0,0.6798638778442098,-0.0,1.0,0.0,1.0,1.0,1.0, 1.0
1027,0.0228,0.132,3.45,0.132,3.45,0.7071564330653243,0.0,0.7070571258210524,-0.0,1.0,0.0,1.0,1.0,1.0, 1.0
1028,0.0228,0.132,3.45,0.132,3.45,0.9992544470923268,0.0,0.03860764129299102,-0.0,1.0,0.0,1.0,1.0,1.0, 1.0
1029,0.0228,0.132,3.45,0.132,3.45,0.9933048453319208,0.0,0.1155226568259627,-0.0,1.0,0.0,1.0,1.0,1.0, 1.0
1030,0.0228,0.132,3.45,0.132,3.45,0.9815390454872983,0.0,0.19126186808635776,-0.0,1.0,0.0,1.0,1.0,1.0, 1.0
1031,0.0228,0.132,3.45,0.132,3.45,0.9642204928570637,0.0,0.2651015676198106,-0.0,1.0,0.0,1.0,1.0,1.0, 1.0
1032,0.0228,0.132,3.45,0.132,3.45,0.941752812145451,0.0,0.33630587389478456,-0.0,1.0,0.0,1.0,1.0,1.0, 1.0
1033,0.0228,0.132,3.45,0.132,3.45,0.9147059073553856,0.0,0.4041201591719483,-0.0,1.0,0.0,1.0,1.0,1.0, 1.0
1034,0.0228,0.132,3.45,0.132,3.45,0.8837980632287796,0.0,0.4678685535842925,-0.0,1.0,0.0,1.0,1.0,1.0, 1.0
1035,0.0228,0.132,3.45,0.132,3.45,0.8498693386381264,0.0,0.526993460341581,-0.0,1.0,0.0,1.0,1.0,1.0, 1.0
1036,0.0228,0.132,3.45,0.132,3.45,0.8138797872314699,0.0,0.5810332967533421,-0.0,1.0,0.0,1.0,1.0,1.0, 1.0
1037,0.0228,0.132,3.45,0.132,3.45,0.7769656189369673,0.0,0.6295430302925255,-0.0,1.0,0.0,1.0,1.0,1.0, 1.0
1038,0.0228,0.132,3.45,0.132,3.45,0.7406501251198048,0.0,0.6718909079307576,-0.0,1.0,0.0,1.0,1.0,1.0, 1.0
1039,0.0228,0.132,3.45,0.132,3.45,0.7072534459363582,0.0,0.7069600860099153,-0.0,1.0,0.0,1.0,1.0,1.0, 1.0
1040,0.0228,0.132,3.45,0.132,3.45,0.6800364133988214,0.0,0.7331783387769084,-0.0,1.0,0.0,1.0,1.0,1.0, 1.0
1041,0.0228,0.132,3.45,0.132,3.45,0.9990860588662743,0.0,0.042743970090006876,-0.0,1.0,0.0,1.0,1.0,1.0, 1.0
1042,0.0228,0.132,3.45,0.132,3.45,0.9918134348973591,0.0,0.12769538111107276,-0.0,1.0,0.0,1.0,1.0,1.0, 1.0
1043,0.0228,0.132,3.45,0.132,3.45,0.9775429006807898,0.0,0.21073651161720314,-0.0,1.0,0.0,1.0,1.0,1.0, 1.0
1044,0.0228,0.132,3.45,0.132,3.45,0.9567798077155648,0.0,0.29081334141983056,-0.0,1.0,0.0,1.0,1.0,1.0, 1.0
1045,0.0228,0.132,3.45,0.132,3.45,0.9302289230246958,0.0,0.3669797688814935,-0.0,1.0,0.0,1.0,1.0,1.0, 1.0
1046,0.0228,0.132,3.45,0.132,3.45,0.8987926480817502,0.0,0.438374013548015,-0.0,1.0,0.0,1.0,1.0,1.0, 1.0
1047,0.0228,0.132,3.45,0.132,3.45,0.8635125790557923,0.0,0.5043273002846608,-0.0,1.0,0.0,1.0,1.0,1.0, 1.0
1048,0.0228,0.132,3.45,0.132,3.45,0.8255014566484606,0.0,0.5643999867746895,-0.0,1.0,0.0,1.0,1.0,1.0, 1.0
1049,0.0228,0.132,3.45,0.132,3.45,0.7859335213516065,0.0,0.6183110058990248,-0.0,1.0,0.0,1.0,1.0,1.0, 1.0
1050,0.0228,0.132,3.45,0.132,3.45,0.7460857460576905,0.0,0.6658498776222306,-0.0,1.0,0.0,1.0,1.0,1.0, 1.0
1051,0.0228,0.132,3.45,0.132,3.45,0.7075103299242275,0.0,0.7067030020103995,-0.0,1.0,0.0,1.0,1.0,1.0, 1.0
1052,0.0228,0.132,3.45,0.132,3.45,0.6724008616017164,0.0,0.7401871934296549,-0.0,1.0,0.0,1.0,1.0,1.0, 1.0
1053,0.0228,0.132,3.45,0.132,3.45,0.6435527584527143,0.0,0.7654017553467606,-0.0,1.0,0.0,1.0,1.0,1.0, 1.0
1054,0.0228,0.132,3.45,0.132,3.45,0.9988531462168372,0.0,0.04787893370497699,-0.0,1.0,0.0,1.0,1.0,1.0, 1.0
1055,0.0228,0.132,3.45,0.132,3.45,0.9897543052516317,0.0,0.1427810044643891,-0.0,1.0,0.0,1.0,1.0,1.0, 1.0
1056,0.0228,0.132,3.45,0.132,3.45,0.9720696824698347,0.0,0.23469242088954345,-0.0,1.0,0.0,1.0,1.0,1.0, 1.0
1057,0.0228,0.132,3.45,0.132,3.45,0.946711305061215,0.0,0.32208338185831803,-0.0,1.0,0.0,1.0,1.0,1.0, 1.0
1058,0.0228,0.132,3.45,0.132,3.45,0.9148658453329999,0.0,0.4037579535354513,-0.0,1.0,0.0,1.0,1.0,1.0, 1.0
1059,0.0228,0.132,3.45,0.132,3.45,0.8779181077220971,0.0,0.47881081455377783,-0.0,1.0,0.0,1.0,1.0,1.0, 1.0
1060,0.0228,0.132,3.45,0.132,3.45,0.837336602870874,0.0,0.5466876745388215,-0.0,1.0,0.0,1.0,1.0,1.0, 1.0
1061,0.0228,0.132,3.45,0.132,3.45,0.7945782187680276,0.0,0.6071618023718459,-0.0,1.0,0.0,1.0,1.0,1.0, 1.0
1062,0.0228,0.132,3.45,0.132,3.45,0.7510300918063741,0.0,0.6602679768104078,-0.0,1.0,0.0,1.0,1.0,1.0, 1.0
1063,0.0228,0.132,3.45,0.132,3.45,0.7080364444406371,0.0,0.7061758940546332,-0.0,1.0,0.0,1.0,1.0,1.0, 1.0
1064,0.0228,0.132,3.45,0.132,3.45,0.6671232277076843,0.0,0.7449473800563913,-0.0,1.0,0.0,1.0,1.0,1.0, 1.0
1065,0.0228,0.132,3.45,0.132,3.45,0.6303396093837517,0.0,0.7763195069312244,-0.0,1.0,0.0,1.0,1.0,1.0, 1.0
1066,0.0228,0.132,3.45,0.132,3.45,0.6001419100173168,0.0,0.7998935478179372,-0.0,1.0,0.0,1.0,1.0,1.0, 1.0
1067,0.0228,0.132,3.45,0.132,3.45,0.9985296735839639,0.0,0.054207849729557764,-0.0,1.0,0.0,1.0,1.0,1.0, 1.0
1068,0.0228,0.132,3.45,0.132,3.45,0.9869098696920362,0.0,0.16127277855995478,-0.0,1.0,0.0,1.0,1.0,1.0, 1.0
1069,0.0228,0.132,3.45,0.132,3.45,0.9646020407657501,0.0,0.2637098840592637,-0.0,1.0,0.0,1.0,1.0,1.0, 1.0
1070,0.0228,0.132,3.45,0.132,3.45,0.9332121578572683,0.0,0.3593258527122434,-0.0,1.0,0.0,1.0,1.0,1.0, 1.0
1071,0.0228,0.132,3.45,0.132,3.45,0.894690598229286,0.0,0.446686392718787,-0.0,1.0,0.0,1.0,1.0,1.0, 1.0
1072,0.0228,0.132,3.45,0.132,3.45,0.8511068434725219,0.0,0.5249925151792548,-0.0,1.0,0.0,1.0,1.0,1.0, 1.0
1073,0.0228,0.132,3.45,0.132,3.45,0.8044686595051569,0.0,0.593995097516786,-0.0,1.0,0.0,1.0,1.0,1.0, 1.0
1074,0.0228,0.132,3.45,0.132,3.45,0.7565884863899764,0.0,0.6538913229750983,-0.0,1.0,0.0,1.0,1.0,1.0, 1.0
1075,0.0228,0.132,3.45,0.132,3.45,0.7090122183062657,0.0,0.7051961956026338,-0.0,1.0,0.0,1.0,1.0,1.0, 1.0
1076,0.0228,0.132,3.45,0.132,3.45,0.6630745874955994,0.0,0.7485533323802258,-0.0,1.0,0.0,1.0,1.0,1.0, 1.0
1077,0.0228,0.132,3.45,0.132,3.45,0.620191142404381,0.0,0.7844507294171819,-0.0,1.0,0.0,1.0,1.0,1.0, 1.0
1078,0.0228,0.132,3.45,0.132,3.45,0.5821955152179313,0.0,0.8130488189894426,-0.0,1.0,0.0,1.0,1.0,1.0, 1.0
1079,0.0228,0.132,3.45,0.132,3.45,0.5512082970051199,0.0,0.8343676727394918,-0.0,1.0,0.0,1.0,1.0,1.0, 1.0
1080,0.0228,0.132,3.45,0.132,3.45,0.9980671935209765,0.0,0.06214400387134276,-0.0,1.0,0.0,1.0,1.0,1.0, 1.0
1081,0.0228,0.132,3.45,0.132,3.45,0.9828813709792691,0.0,0.184239546737155,-0.0,1.0,0.0,1.0,1.0,1.0, 1.0
1082,0.0228,0.132,3.45,0.132,3.45,0.9542123330160358,0.0,0.29913011135640294,-0.0,1.0,0.0,1.0,1.0,1.0, 1.0
1083,0.0228,0.132,3.45,0.132,3.45,0.9148812524740071,0.0,0.40372304104620077,-0.0,1.0,0.0,1.0,1.0,1.0, 1.0
1084,0.0228,0.132,3.45,0.132,3.45,0.8680468574340495,0.0,0.4964822789373968,-0.0,1.0,0.0,1.0,1.0,1.0, 1.0
1085,0.0228,0.132,3.45,0.132,3.45,0.816728569096896,0.0,0.5770220484703655,-0.0,1.0,0.0,1.0,1.0,1.0, 1.0
1086,0.0228,0.132,3.45,0.132,3.45,0.7635379945087762,0.0,0.6457629061362352,-0.0,1.0,0.0,1.0,1.0,1.0, 1.0
1087,0.0228,0.132,3.45,0.132,3.45,0.7105540649259049,0.0,0.7036426087278065,-0.0,1.0,0.0,1.0,1.0,1.0, 1.0
1088,0.0228,0.132,3.45,0.132,3.45,0.6593418241636224,0.0,0.7518433074175674,-0.0,1.0,0.0,1.0,1.0,1.0, 1.0
1089,0.0228,0.132,3.45,0.132,3.45,0.6111044596694576,0.0,0.79154996012387,-0.0,1.0,0.0,1.0,1.0,1.0, 1.0
1090,0.0228,0.132,3.45,0.132,3.45,0.567019769298401,0.0,0.8237041830807879,-0.0,1.0,0.0,1.0,1.0,1.0, 1.0
1091,0.0228,0.132,3.45,0.132,3.45,0.5285802834521703,0.0,0.8488833158600911,-0.0,1.0,0.0,1.0,1.0,1.0, 1.0
1092,0.0228,0.132,3.45,0.132,3.45,0.4975467648233146,0.0,0.8674371543886353,-0.0,1.0,0.0,1.0,1.0,1.0, 1.0
1093,0.0228,0.132,3.45,0.132,3.45,0.9973748038671051,0.0,0.07241201979681079,-0.0,1.0,0.0,1.0,1.0,1.0, 1.0
1094,0.0228,0.132,3.45,0.132,3.45,0.9769339977559932,0.0,0.21354148081460256,-0.0,1.0,0.0,1.0,1.0,1.0, 1.0
1095,0.0228,0.132,3.45,0.132,3.45,0.9392601730684348,0.0,0.34320595462120695,-0.0,1.0,0.0,1.0,1.0,1.0, 1.0
1096,0.0228,0.132,3.45,0.132,3.45,0.8893673931757463,0.0,0.4571932194989088,-0.0,1.0,0.0,1.0,1.0,1.0, 1.0
1097,0.0228,0.132,3.45,0.132,3.45,0.8323240478910618,0.0,0.5542893461922547,-0.0,1.0,0.0,1.0,1.0,1.0, 1.0
1098,0.0228,0.132,3.45,0.132,3.45,0.7723621565800329,0.0,0.6351824140221772,-0.0,1.0,0.0,1.0,1.0,1.0, 1.0
1099,0.0228,0.132,3.45,0.132,3.45,0.7125897063300942,0.0,0.7015810077477795,-0.0,1.0,0.0,1.0,1.0,1.0, 1.0
1100,0.0228,0.132,3.45,0.132,3.45,0.6551076866650675,0.0,0.755535517942303,-0.0,1.0,0.0,1.0,1.0,1.0, 1.0
1101,0.0228,0.132,3.45,0.132,3.45,0.601247794713534,0.0,0.799062631682969,-0.0,1.0,0.0,1.0,1.0,1.0, 1.0
1102,0.0228,0.132,3.45,0.132,3.45,0.5518538445502982,0.0,0.8339408457768784,-0.0,1.0,0.0,1.0,1.0,1.0, 1.0
1103,0.0228,0.132,3.45,0.132,3.45,0.5077127916197799,0.0,0.8615263903245505,-0.0,1.0,0.0,1.0,1.0,1.0, 1.0
1104,0.0228,0.132,3.45,0.132,3.45,0.4698856297438901,0.0,0.8827273049816619,-0.0,1.0,0.0,1.0,1.0,1.0, 1.0
1105,0.0228,0.132,3.45,0.132,3.45,0.4397102151386452,0.0,0.898139703332798,-0.0,1.0,0.0,1.0,1.0,1.0, 1.0
1106,0.0228,0.132,3.45,0.132,3.45,0.9962706555145173,0.0,0.08628314412835159,-0.0,1.0,0.0,1.0,1.0,1.0, 1.0
1107,0.0228,0.132,3.45,0.132,3.45,0.9676451943229593,0.0,0.25231483884956607,-0.0,1.0,0.0,1.0,1.0,1.0, 1.0
1108,0.0228,0.132,3.45,0.132,3.45,0.9167604800757614,0.0,0.39943738204036394,-0.0,1.0,0.0,1.0,1.0,1.0, 1.0
1109,0.0228,0.132,3.45,0.132,3.45,0.8527334959208358,0.0,0.5223462308992283,-0.0,1.0,0.0,1.0,1.0,1.0, 1.0
1110,0.0228,0.132,3.45,0.132,3.45,0.7835387187390178,0.0,0.6213429618470128,-0.0,1.0,0.0,1.0,1.0,1.0, 1.0
1111,0.0228,0.132,3.45,0.132,3.45,0.7146284561211812,0.0,0.6995042313680861,-0.0,1.0,0.0,1.0,1.0,1.0, 1.0
1112,0.0228,0.132,3.45,0.132,3.45,0.6491479615962626,0.0,0.7606621615115458,-0.0,1.0,0.0,1.0,1.0,1.0, 1.0
1113,0.0228,0.132,3.45,0.132,3.45,0.5886850445399786,0.0,0.8083624919149597,-0.0,1.0,0.0,1.0,1.0,1.0, 1.0
1114,0.0228,0.132,3.45,0.132,3.45,0.5339177214838766,0.0,0.8455364372311021,-0.0,1.0,0.0,1.0,1.0,1.0, 1.0
1115,0.0228,0.132,3.45,0.132,3.45,0.4850794801351522,0.0,0.8744700669272849,-0.0,1.0,0.0,1.0,1.0,1.0, 1.0
1116,0.0228,0.132,3.45,0.132,3.45,0.4424100164682655,0.0,0.8968128998450842,-0.0,1.0,0.0,1.0,1.0,1.0, 1.0
1117,0.0228,0.132,3.45,0.132,3.45,0.4064928512917318,0.0,0.9136539617649112,-0.0,1.0,0.0,1.0,1.0,1.0, 1.0
1118,0.0228,0.132,3.45,0.132,3.45,0.37820275711523776,0.0,0.9257227849148105,-0.0,1.0,0.0,1.0,1.0,1.0, 1.0
1119,0.0228,0.132,3.45,0.132,3.45,0.9943495722255177,0.0,0.10615520813850725,-0.0,1.0,0.0,1.0,1.0,1.0, 1.0
1120,0.0228,0.132,3.45,0.132,3.45,0.9520225187278861,0.0,0.30602797884345767,-0.0,1.0,0.0,1.0,1.0,1.0, 1.0
1121,0.0228,0.132,3.45,0.132,3.45,0.8810342838019604,0.0,0.473052418623525,-0.0,1.0,0.0,1.0,1.0,1.0, 1.0
1122,0.0228,0.132,3.45,0.132,3.45,0.7983505656161621,0.0,0.6021929710486116,-0.0,1.0,0.0,1.0,1.0,1.0, 1.0
1123,0.0228,0.132,3.45,0.132,3.45,0.7157864488078213,0.0,0.698319239104214,-0.0,1.0,0.0,1.0,1.0,1.0, 1.0
1124,0.0228,0.132,3.45,0.132,3.45,0.6391420275568018,0.0,0.7690887260976982,-0.0,1.0,0.0,1.0,1.0,1.0, 1.0
1125,0.0228,0.132,3.45,0.132,3.45,0.5704110265663068,0.0,0.8213593980539653,-0.0,1.0,0.0,1.0,1.0,1.0, 1.0
1126,0.0228,0.132,3.45,0.132,3.45,0.5097661558429026,0.0,0.8603130048750568,-0.0,1.0,0.0,1.0,1.0,1.0, 1.0
1127,0.0228,0.132,3.45,0.132,3.45,0.456721396286922,0.0,0.8896097830924098,-0.0,1.0,0.0,1.0,1.0,1.0, 1.0
1128,0.0228,0.132,3.45,0.132,3.45,0.41071909036785376,0.0,0.9117619364765139,-0.0,1.0,0.0,1.0,1.0,1.0, 1.0
1129,0.0228,0.132,3.45,0.132,3.45,0.3714070397533216,0.0,0.9284701453583063,-0.0,1.0,0.0,1.0,1.0,1.0, 1.0
1130,0.0228,0.132,3.45,0.132,3.45,0.3388769107264219,0.0,0.9408307177045809,-0.0,1.0,0.0,1.0,1.0,1.0, 1.0
1131,0.0228,0.132,3.45,0.132,3.45,0.31356457534940924,0.0,0.9495668786799298,-0.0,1.0,0.0,1.0,1.0,1.0, 1.0
1132,0.0228,0.132,3.45,0.132,3.45,0.990560047735564,0.0,0.13707950915478642,-0.0,1.0,0.0,1.0,1.0,1.0, 1.0
1133,0.0228,0.132,3.45,0.132,3.45,0.9230392357958945,0.0,0.3847058216109173,-0.0,1.0,0.0,1.0,1.0,1.0, 1.0
1134,0.0228,0.132,3.45,0.132,3.45,0.820776629384274,0.0,0.5712492666573764,-0.0,1.0,0.0,1.0,1.0,1.0, 1.0
1135,0.0228,0.132,3.45,0.132,3.45,0.7152924294931395,0.0,0.6988252573496482,-0.0,1.0,0.0,1.0,1.0,1.0, 1.0
1136,0.0228,0.132,3.45,0.132,3.45,0.6209892643077247,0.0,0.7838190694379352,-0.0,1.0,0.0,1.0,1.0,1.0, 1.0
1137,0.0228,0.132,3.45,0.132,3.45,0.5409061999417635,0.0,0.8410829227041535,-0.0,1.0,0.0,1.0,1.0,1.0, 1.0
1138,0.0228,0.132,3.45,0.132,3.45,0.4737136541508462,0.0,0.880678927800054,-0.0,1.0,0.0,1.0,1.0,1.0, 1.0
1139,0.0228,0.132,3.45,0.132,3.45,0.4171842199511891,0.0,0.9088219444003969,-0.0,1.0,0.0,1.0,1.0,1.0, 1.0
1140,0.0228,0.132,3.45,0.132,3.45,0.3694163397065481,0.0,0.9292639926080296,-0.0,1.0,0.0,1.0,1.0,1.0, 1.0
