e_no,c,k1,k2,k3,k4,ax,ay,az,bx,by,bz,pvol,m_g,m_c
1,0.0228,0.132,3.45,0.132,3.45,-0.6895441552530425,0.0,0.7242436454373405,0.0,1.0,-0.0,1.0,1.0,1.0, 1.0
2,0.0228,0.132,3.45,0.132,3.45,-0.6895545979679897,0.0,0.7242337029034234,0.0,1.0,-0.0,1.0,1.0,1.0, 1.0
3,0.0228,0.132,3.45,0.132,3.45,-0.6895752291119592,0.0,0.7242140590979915,0.0,1.0,-0.0,1.0,1.0,1.0, 1.0
4,0.0228,0.132,3.45,0.132,3.45,-0.6896099373857364,0.0,0.7241810093193832,0.0,1.0,-0.0,1.0,1.0,1.0, 1.0
5,0.0228,0.132,3.45,0.132,3.45,-0.6896561185646187,0.0,0.7241370299372796,0.0,1.0,-0.0,1.0,1.0,1.0, 1.0
6,0.0228,0.132,3.45,0.132,3.45,-0.6897219733754896,0.0,0.7240743051945846,0.0,1.0,-0.0,1.0,1.0,1.0, 1.0
7,0.0228,0.132,3.45,0.132,3.45,-0.689806256305961,0.0,0.7239940115506169,0.0,1.0,-0.0,1.0,1.0,1.0, 1.0
8,0.0228,0.132,3.45,0.132,3.45,-0.689905214451371,0.0,0.7238997134084306,0.0,1.0,-0.0,1.0,1.0,1.0, 1.0
9,0.0228,0.132,3.45,0.132,3.45,-0.6900276607633122,0.0,0.7237829974388118,0.0,1.0,-0.0,1.0,1.0,1.0, 1.0
10,0.0228,0.132,3.45,0.132,3.45,-0.6901855491139975,0.0,0.7236324397055524,0.0,1.0,-0.0,1.0,1.0,1.0, 1.0
11,0.0228,0.132,3.45,0.132,3.45,-0.690384778028753,0.0,0.7234423669278633,0.0,1.0,-0.0,1.0,1.0,1.0, 1.0
12,0.0228,0.132,3.45,0.132,3.45,-0.6906469995277622,0.0,0.7231920367670674,0.0,1.0,-0.0,1.0,1.0,1.0, 1.0
13,0.0228,0.132,3.45,0.132,3.45,-0.6910009650858722,0.0,0.7228538346376765,0.0,1.0,-0.0,1.0,1.0,1.0, 1.0
14,0.0228,0.132,3.45,0.132,3.45,-0.6915883811671297,0.0,0.7222918461637435,0.0,1.0,-0.0,1.0,1.0,1.0, 1.0
15,0.0228,0.132,3.45,0.132,3.45,-0.6928331137583369,0.0,0.7210979659380045,0.0,1.0,-0.0,1.0,1.0,1.0, 1.0
16,0.0228,0.132,3.45,0.132,3.45,-0.6957779835338123,0.0,0.7182569161724947,0.0,1.0,-0.0,1.0,1.0,1.0, 1.0
17,0.0228,0.132,3.45,0.132,3.45,-0.6531781638550942,0.0,0.7572042566328373,0.0,1.0,-0.0,1.0,1.0,1.0, 1.0
18,0.0228,0.132,3.45,0.132,3.45,-0.6532007589955163,0.0,0.7571847650657542,0.0,1.0,-0.0,1.0,1.0,1.0, 1.0
19,0.0228,0.132,3.45,0.132,3.45,-0.6532501649191931,0.0,0.757142141234423,0.0,1.0,-0.0,1.0,1.0,1.0, 1.0
20,0.0228,0.132,3.45,0.132,3.45,-0.653342740473176,0.0,0.7570622586491814,0.0,1.0,-0.0,1.0,1.0,1.0, 1.0
21,0.0228,0.132,3.45,0.132,3.45,-0.6534801602934318,0.0,0.7569436439411263,0.0,1.0,-0.0,1.0,1.0,1.0, 1.0
22,0.0228,0.132,3.45,0.132,3.45,-0.6536677561839933,0.0,0.7567816491732496,0.0,1.0,-0.0,1.0,1.0,1.0, 1.0
23,0.0228,0.132,3.45,0.132,3.45,-0.6539053375938906,0.0,0.7565763738488139,0.0,1.0,-0.0,1.0,1.0,1.0, 1.0
24,0.0228,0.132,3.45,0.132,3.45,-0.6542001614910891,0.0,0.756321458577656,0.0,1.0,-0.0,1.0,1.0,1.0, 1.0
25,0.0228,0.132,3.45,0.132,3.45,-0.6545708608338696,0.0,0.75600065353623,0.0,1.0,-0.0,1.0,1.0,1.0, 1.0
26,0.0228,0.132,3.45,0.132,3.45,-0.6550374726345206,0.0,0.7555963932183503,0.0,1.0,-0.0,1.0,1.0,1.0, 1.0
27,0.0228,0.132,3.45,0.132,3.45,-0.6556342066405413,0.0,0.7550786628443608,0.0,1.0,-0.0,1.0,1.0,1.0, 1.0
28,0.0228,0.132,3.45,0.132,3.45,-0.6564123000505243,0.0,0.7544023411564816,0.0,1.0,-0.0,1.0,1.0,1.0, 1.0
29,0.0228,0.132,3.45,0.132,3.45,-0.6574634687153512,0.0,0.753486421446849,0.0,1.0,-0.0,1.0,1.0,1.0, 1.0
30,0.0228,0.132,3.45,0.132,3.45,-0.6591227325920073,0.0,0.7520353870533257,0.0,1.0,-0.0,1.0,1.0,1.0, 1.0
31,0.0228,0.132,3.45,0.132,3.45,-0.662426712465243,0.0,0.749126725335901,0.0,1.0,-0.0,1.0,1.0,1.0, 1.0
32,0.0228,0.132,3.45,0.132,3.45,-0.6696593554249752,0.0,0.7426683968581177,0.0,1.0,-0.0,1.0,1.0,1.0, 1.0
33,0.0228,0.132,3.45,0.132,3.45,-0.6152211398998155,0.0,0.788354583306504,0.0,1.0,-0.0,1.0,1.0,1.0, 1.0
34,0.0228,0.132,3.45,0.132,3.45,-0.6152233345651098,0.0,0.7883528706147945,0.0,1.0,-0.0,1.0,1.0,1.0, 1.0
35,0.0228,0.132,3.45,0.132,3.45,-0.615274249376969,0.0,0.7883131345180082,0.0,1.0,-0.0,1.0,1.0,1.0, 1.0
36,0.0228,0.132,3.45,0.132,3.45,-0.615389425254014,0.0,0.7882232268117544,0.0,1.0,-0.0,1.0,1.0,1.0, 1.0
37,0.0228,0.132,3.45,0.132,3.45,-0.6155827085852088,0.0,0.788072286589814,0.0,1.0,-0.0,1.0,1.0,1.0, 1.0
38,0.0228,0.132,3.45,0.132,3.45,-0.6158562021457987,0.0,0.7878585775877249,0.0,1.0,-0.0,1.0,1.0,1.0, 1.0
39,0.0228,0.132,3.45,0.132,3.45,-0.6162132949197915,0.0,0.7875793135704454,0.0,1.0,-0.0,1.0,1.0,1.0, 1.0
40,0.0228,0.132,3.45,0.132,3.45,-0.6166702661250624,0.0,0.7872215589510012,0.0,1.0,-0.0,1.0,1.0,1.0, 1.0
41,0.0228,0.132,3.45,0.132,3.45,-0.6172552983179898,0.0,0.7867629228035403,0.0,1.0,-0.0,1.0,1.0,1.0, 1.0
42,0.0228,0.132,3.45,0.132,3.45,-0.6179929248456585,0.0,0.7861836584670966,0.0,1.0,-0.0,1.0,1.0,1.0, 1.0
43,0.0228,0.132,3.45,0.132,3.45,-0.618943616608333,0.0,0.7854354202987007,0.0,1.0,-0.0,1.0,1.0,1.0, 1.0
44,0.0228,0.132,3.45,0.132,3.45,-0.620185049791452,0.0,0.7844555462326557,0.0,1.0,-0.0,1.0,1.0,1.0, 1.0
45,0.0228,0.132,3.45,0.132,3.45,-0.6218420727274278,0.0,0.7831426668149658,0.0,1.0,-0.0,1.0,1.0,1.0, 1.0
46,0.0228,0.132,3.45,0.132,3.45,-0.6243200535857707,0.0,0.781168657007346,0.0,1.0,-0.0,1.0,1.0,1.0, 1.0
47,0.0228,0.132,3.45,0.132,3.45,-0.6288874067830227,0.0,0.7774963855798462,0.0,1.0,-0.0,1.0,1.0,1.0, 1.0
48,0.0228,0.132,3.45,0.132,3.45,-0.6380423102997299,0.0,0.770001305367324,0.0,1.0,-0.0,1.0,1.0,1.0, 1.0
49,0.0228,0.132,3.45,0.132,3.45,-0.5757593211757772,0.0,0.8176192292743659,0.0,1.0,-0.0,1.0,1.0,1.0, 1.0
50,0.0228,0.132,3.45,0.132,3.45,-0.5756946501136913,0.0,0.8176647661667187,0.0,1.0,-0.0,1.0,1.0,1.0, 1.0
51,0.0228,0.132,3.45,0.132,3.45,-0.5756989706104602,0.0,0.8176617242099916,0.0,1.0,-0.0,1.0,1.0,1.0, 1.0
52,0.0228,0.132,3.45,0.132,3.45,-0.5757942123287744,0.0,0.8175946581581158,0.0,1.0,-0.0,1.0,1.0,1.0, 1.0
53,0.0228,0.132,3.45,0.132,3.45,-0.5759957514143196,0.0,0.8174526863082986,0.0,1.0,-0.0,1.0,1.0,1.0, 1.0
54,0.0228,0.132,3.45,0.132,3.45,-0.5763051449743919,0.0,0.8172345929266854,0.0,1.0,-0.0,1.0,1.0,1.0, 1.0
55,0.0228,0.132,3.45,0.132,3.45,-0.5767353747518447,0.0,0.8169310298365765,0.0,1.0,-0.0,1.0,1.0,1.0, 1.0
56,0.0228,0.132,3.45,0.132,3.45,-0.5773016551099923,0.0,0.8165309541023312,0.0,1.0,-0.0,1.0,1.0,1.0, 1.0
57,0.0228,0.132,3.45,0.132,3.45,-0.5780364476252349,0.0,0.8160109467505932,0.0,1.0,-0.0,1.0,1.0,1.0, 1.0
58,0.0228,0.132,3.45,0.132,3.45,-0.5789817881656684,0.0,0.815340474263657,0.0,1.0,-0.0,1.0,1.0,1.0, 1.0
59,0.0228,0.132,3.45,0.132,3.45,-0.5802108984210063,0.0,0.8144662751480191,0.0,1.0,-0.0,1.0,1.0,1.0, 1.0
60,0.0228,0.132,3.45,0.132,3.45,-0.5818248851149963,0.0,0.8133140863534342,0.0,1.0,-0.0,1.0,1.0,1.0, 1.0
61,0.0228,0.132,3.45,0.132,3.45,-0.5839642666660386,0.0,0.8117793636556647,0.0,1.0,-0.0,1.0,1.0,1.0, 1.0
62,0.0228,0.132,3.45,0.132,3.45,-0.5870594025281611,0.0,0.8095438579244972,0.0,1.0,-0.0,1.0,1.0,1.0, 1.0
63,0.0228,0.132,3.45,0.132,3.45,-0.592421140020166,0.0,0.8056284459086626,0.0,1.0,-0.0,1.0,1.0,1.0, 1.0
64,0.0228,0.132,3.45,0.132,3.45,-0.6025836606940034,0.0,0.7980557197743867,0.0,1.0,-0.0,1.0,1.0,1.0, 1.0
65,0.0228,0.132,3.45,0.132,3.45,-0.5348903279537723,0.0,0.8449214975732987,0.0,1.0,-0.0,1.0,1.0,1.0, 1.0
66,0.0228,0.132,3.45,0.132,3.45,-0.5347208031874402,0.0,0.8450287939701102,0.0,1.0,-0.0,1.0,1.0,1.0, 1.0
67,0.0228,0.132,3.45,0.132,3.45,-0.5346334888298782,0.0,0.8450840387923514,0.0,1.0,-0.0,1.0,1.0,1.0, 1.0
68,0.0228,0.132,3.45,0.132,3.45,-0.5346605738746097,0.0,0.8450669031171868,0.0,1.0,-0.0,1.0,1.0,1.0, 1.0
69,0.0228,0.132,3.45,0.132,3.45,-0.5348205664523337,0.0,0.8449656571125272,0.0,1.0,-0.0,1.0,1.0,1.0, 1.0
70,0.0228,0.132,3.45,0.132,3.45,-0.5351136131041536,0.0,0.8447801021985653,0.0,1.0,-0.0,1.0,1.0,1.0, 1.0
71,0.0228,0.132,3.45,0.132,3.45,-0.5355584983847964,0.0,0.8444981319149393,0.0,1.0,-0.0,1.0,1.0,1.0, 1.0
72,0.0228,0.132,3.45,0.132,3.45,-0.536177322810212,0.0,0.844105371682987,0.0,1.0,-0.0,1.0,1.0,1.0, 1.0
73,0.0228,0.132,3.45,0.132,3.45,-0.5369984257698469,0.0,0.8435832446894059,0.0,1.0,-0.0,1.0,1.0,1.0, 1.0
74,0.0228,0.132,3.45,0.132,3.45,-0.5380781669483646,0.0,0.8428949437821346,0.0,1.0,-0.0,1.0,1.0,1.0, 1.0
75,0.0228,0.132,3.45,0.132,3.45,-0.5395056412584682,0.0,0.8419819849915372,0.0,1.0,-0.0,1.0,1.0,1.0, 1.0
76,0.0228,0.132,3.45,0.132,3.45,-0.5413856320082059,0.0,0.8407744034252443,0.0,1.0,-0.0,1.0,1.0,1.0, 1.0
77,0.0228,0.132,3.45,0.132,3.45,-0.543883167810286,0.0,0.8391609498616152,0.0,1.0,-0.0,1.0,1.0,1.0, 1.0
78,0.0228,0.132,3.45,0.132,3.45,-0.5474323336674888,0.0,0.8368499507410915,0.0,1.0,-0.0,1.0,1.0,1.0, 1.0
79,0.0228,0.132,3.45,0.132,3.45,-0.5533299030736086,0.0,0.8329621950392172,0.0,1.0,-0.0,1.0,1.0,1.0, 1.0
80,0.0228,0.132,3.45,0.132,3.45,-0.5640985233771162,0.0,0.8257074881117145,0.0,1.0,-0.0,1.0,1.0,1.0, 1.0
81,0.0228,0.132,3.45,0.132,3.45,-0.4927177706879645,0.0,0.8701891739433916,0.0,1.0,-0.0,1.0,1.0,1.0, 1.0
82,0.0228,0.132,3.45,0.132,3.45,-0.4924088275098768,0.0,0.8703640310757036,0.0,1.0,-0.0,1.0,1.0,1.0, 1.0
83,0.0228,0.132,3.45,0.132,3.45,-0.49219944086692136,0.0,0.8704824584161877,0.0,1.0,-0.0,1.0,1.0,1.0, 1.0
84,0.0228,0.132,3.45,0.132,3.45,-0.4921190105374061,0.0,0.8705279314689933,0.0,1.0,-0.0,1.0,1.0,1.0, 1.0
85,0.0228,0.132,3.45,0.132,3.45,-0.4921892724177292,0.0,0.8704882079137582,0.0,1.0,-0.0,1.0,1.0,1.0, 1.0
86,0.0228,0.132,3.45,0.132,3.45,-0.4924191630356471,0.0,0.8703581836665137,0.0,1.0,-0.0,1.0,1.0,1.0, 1.0
87,0.0228,0.132,3.45,0.132,3.45,-0.4928272535600526,0.0,0.8701271735490483,0.0,1.0,-0.0,1.0,1.0,1.0, 1.0
88,0.0228,0.132,3.45,0.132,3.45,-0.49343741122328094,0.0,0.8697813065393315,0.0,1.0,-0.0,1.0,1.0,1.0, 1.0
89,0.0228,0.132,3.45,0.132,3.45,-0.4942837562428644,0.0,0.8693006202197516,0.0,1.0,-0.0,1.0,1.0,1.0, 1.0
90,0.0228,0.132,3.45,0.132,3.45,-0.4954334180441704,0.0,0.8686459165189636,0.0,1.0,-0.0,1.0,1.0,1.0, 1.0
91,0.0228,0.132,3.45,0.132,3.45,-0.4969792522461479,0.0,0.8677624230380454,0.0,1.0,-0.0,1.0,1.0,1.0, 1.0
92,0.0228,0.132,3.45,0.132,3.45,-0.4990294067469785,0.0,0.8665850513375813,0.0,1.0,-0.0,1.0,1.0,1.0, 1.0
93,0.0228,0.132,3.45,0.132,3.45,-0.5017659800832274,0.0,0.8650034111095275,0.0,1.0,-0.0,1.0,1.0,1.0, 1.0
94,0.0228,0.132,3.45,0.132,3.45,-0.5056183858620433,0.0,0.8627572357727645,0.0,1.0,-0.0,1.0,1.0,1.0, 1.0
95,0.0228,0.132,3.45,0.132,3.45,-0.5118578089148931,0.0,0.8590701854056191,0.0,1.0,-0.0,1.0,1.0,1.0, 1.0
96,0.0228,0.132,3.45,0.132,3.45,-0.5229780556633254,0.0,0.8523461464068502,0.0,1.0,-0.0,1.0,1.0,1.0, 1.0
97,0.0228,0.132,3.45,0.132,3.45,-0.44934769879717784,0.0,0.8933569530628174,0.0,1.0,-0.0,1.0,1.0,1.0, 1.0
98,0.0228,0.132,3.45,0.132,3.45,-0.4488713773678864,0.0,0.8935963778909672,0.0,1.0,-0.0,1.0,1.0,1.0, 1.0
99,0.0228,0.132,3.45,0.132,3.45,-0.4485130592838064,0.0,0.8937762783000457,0.0,1.0,-0.0,1.0,1.0,1.0, 1.0
100,0.0228,0.132,3.45,0.132,3.45,-0.44830573934282764,0.0,0.8938802850898327,0.0,1.0,-0.0,1.0,1.0,1.0, 1.0
101,0.0228,0.132,3.45,0.132,3.45,-0.4482600137499827,0.0,0.8939032162783985,0.0,1.0,-0.0,1.0,1.0,1.0, 1.0
102,0.0228,0.132,3.45,0.132,3.45,-0.44839003821208456,0.0,0.8938380018952904,0.0,1.0,-0.0,1.0,1.0,1.0, 1.0
103,0.0228,0.132,3.45,0.132,3.45,-0.44871776147431425,0.0,0.8936735257002305,0.0,1.0,-0.0,1.0,1.0,1.0, 1.0
104,0.0228,0.132,3.45,0.132,3.45,-0.4492701330623632,0.0,0.8933959634664388,0.0,1.0,-0.0,1.0,1.0,1.0, 1.0
105,0.0228,0.132,3.45,0.132,3.45,-0.450087409901454,0.0,0.8929845034759564,0.0,1.0,-0.0,1.0,1.0,1.0, 1.0
106,0.0228,0.132,3.45,0.132,3.45,-0.45124163391095024,0.0,0.8924018085063342,0.0,1.0,-0.0,1.0,1.0,1.0, 1.0
107,0.0228,0.132,3.45,0.132,3.45,-0.4528238450758038,0.0,0.8916000029894371,0.0,1.0,-0.0,1.0,1.0,1.0, 1.0
108,0.0228,0.132,3.45,0.132,3.45,-0.4549575704962838,0.0,0.890513115595789,0.0,1.0,-0.0,1.0,1.0,1.0, 1.0
109,0.0228,0.132,3.45,0.132,3.45,-0.45782249386088153,0.0,0.8890436232913451,0.0,1.0,-0.0,1.0,1.0,1.0, 1.0
110,0.0228,0.132,3.45,0.132,3.45,-0.4618301473198428,0.0,0.8869683844571532,0.0,1.0,-0.0,1.0,1.0,1.0, 1.0
111,0.0228,0.132,3.45,0.132,3.45,-0.4682326328974265,0.0,0.8836052294378661,0.0,1.0,-0.0,1.0,1.0,1.0, 1.0
112,0.0228,0.132,3.45,0.132,3.45,-0.47946809468017154,0.0,0.8775593120603109,0.0,1.0,-0.0,1.0,1.0,1.0, 1.0
113,0.0228,0.132,3.45,0.132,3.45,-0.404891828995108,0.0,0.9143645918412392,0.0,1.0,-0.0,1.0,1.0,1.0, 1.0
114,0.0228,0.132,3.45,0.132,3.45,-0.40424934912725513,0.0,0.9146488198921979,0.0,1.0,-0.0,1.0,1.0,1.0, 1.0
115,0.0228,0.132,3.45,0.132,3.45,-0.4037318795698159,0.0,0.9148773521183174,0.0,1.0,-0.0,1.0,1.0,1.0, 1.0
116,0.0228,0.132,3.45,0.132,3.45,-0.4033786567392855,0.0,0.9150331465511016,0.0,1.0,-0.0,1.0,1.0,1.0, 1.0
117,0.0228,0.132,3.45,0.132,3.45,-0.4032031984060607,0.0,0.9151104746396049,0.0,1.0,-0.0,1.0,1.0,1.0, 1.0
118,0.0228,0.132,3.45,0.132,3.45,-0.40321364468426585,0.0,0.9151058718751784,0.0,1.0,-0.0,1.0,1.0,1.0, 1.0
119,0.0228,0.132,3.45,0.132,3.45,-0.40343142587116454,0.0,0.9150098822524044,0.0,1.0,-0.0,1.0,1.0,1.0, 1.0
120,0.0228,0.132,3.45,0.132,3.45,-0.4038874741065247,0.0,0.9148086730348872,0.0,1.0,-0.0,1.0,1.0,1.0, 1.0
121,0.0228,0.132,3.45,0.132,3.45,-0.4046296853114948,0.0,0.9144806273315584,0.0,1.0,-0.0,1.0,1.0,1.0, 1.0
122,0.0228,0.132,3.45,0.132,3.45,-0.4057325230386256,0.0,0.9139918597825207,0.0,1.0,-0.0,1.0,1.0,1.0, 1.0
123,0.0228,0.132,3.45,0.132,3.45,-0.4072849948903204,0.0,0.9133011184364069,0.0,1.0,-0.0,1.0,1.0,1.0, 1.0
124,0.0228,0.132,3.45,0.132,3.45,-0.4094103287134063,0.0,0.9123503618362743,0.0,1.0,-0.0,1.0,1.0,1.0, 1.0
125,0.0228,0.132,3.45,0.132,3.45,-0.41228969824041806,0.0,0.9110528001849426,0.0,1.0,-0.0,1.0,1.0,1.0, 1.0
126,0.0228,0.132,3.45,0.132,3.45,-0.4163260694104254,0.0,0.909215378185645,0.0,1.0,-0.0,1.0,1.0,1.0, 1.0
127,0.0228,0.132,3.45,0.132,3.45,-0.4227148081724948,0.0,0.9062627604352343,0.0,1.0,-0.0,1.0,1.0,1.0, 1.0
128,0.0228,0.132,3.45,0.132,3.45,-0.43382136578520347,0.0,0.9009989026565242,0.0,1.0,-0.0,1.0,1.0,1.0, 1.0
129,0.0228,0.132,3.45,0.132,3.45,-0.3594665382820635,0.0,0.9331579758301967,0.0,1.0,-0.0,1.0,1.0,1.0, 1.0
130,0.0228,0.132,3.45,0.132,3.45,-0.35867258884141895,0.0,0.9334634293928148,0.0,1.0,-0.0,1.0,1.0,1.0, 1.0
131,0.0228,0.132,3.45,0.132,3.45,-0.35800464791141057,0.0,0.9337198038350836,0.0,1.0,-0.0,1.0,1.0,1.0, 1.0
132,0.0228,0.132,3.45,0.132,3.45,-0.35750561917163,0.0,0.9339109873326844,0.0,1.0,-0.0,1.0,1.0,1.0, 1.0
133,0.0228,0.132,3.45,0.132,3.45,-0.3571956118782531,0.0,0.9340296006310079,0.0,1.0,-0.0,1.0,1.0,1.0, 1.0
134,0.0228,0.132,3.45,0.132,3.45,-0.35707660599244473,0.0,0.9340751026833529,0.0,1.0,-0.0,1.0,1.0,1.0, 1.0
135,0.0228,0.132,3.45,0.132,3.45,-0.3571709562009195,0.0,0.9340390291880318,0.0,1.0,-0.0,1.0,1.0,1.0, 1.0
136,0.0228,0.132,3.45,0.132,3.45,-0.357509973162101,0.0,0.9339093205925476,0.0,1.0,-0.0,1.0,1.0,1.0, 1.0
137,0.0228,0.132,3.45,0.132,3.45,-0.35814606654825043,0.0,0.9336655691499051,0.0,1.0,-0.0,1.0,1.0,1.0, 1.0
138,0.0228,0.132,3.45,0.132,3.45,-0.359147866664908,0.0,0.9332806704684532,0.0,1.0,-0.0,1.0,1.0,1.0, 1.0
139,0.0228,0.132,3.45,0.132,3.45,-0.3606071517781722,0.0,0.9327177933793449,0.0,1.0,-0.0,1.0,1.0,1.0, 1.0
140,0.0228,0.132,3.45,0.132,3.45,-0.36265240348482514,0.0,0.9319244788322064,0.0,1.0,-0.0,1.0,1.0,1.0, 1.0
141,0.0228,0.132,3.45,0.132,3.45,-0.36544975011187764,0.0,0.9308310696056327,0.0,1.0,-0.0,1.0,1.0,1.0, 1.0
142,0.0228,0.132,3.45,0.132,3.45,-0.3693847177459905,0.0,0.9292765628679736,0.0,1.0,-0.0,1.0,1.0,1.0, 1.0
143,0.0228,0.132,3.45,0.132,3.45,-0.3755886513651224,0.0,0.9267864721529596,0.0,1.0,-0.0,1.0,1.0,1.0, 1.0
144,0.0228,0.132,3.45,0.132,3.45,-0.38631089433673765,0.0,0.9223686317935742,0.0,1.0,-0.0,1.0,1.0,1.0, 1.0
145,0.0228,0.132,3.45,0.132,3.45,-0.31318814460505756,0.0,0.9496911003472874,0.0,1.0,-0.0,1.0,1.0,1.0, 1.0
146,0.0228,0.132,3.45,0.132,3.45,-0.3122663321675385,0.0,0.9499945988239262,0.0,1.0,-0.0,1.0,1.0,1.0, 1.0
147,0.0228,0.132,3.45,0.132,3.45,-0.3114763911150417,0.0,0.950253891219578,0.0,1.0,-0.0,1.0,1.0,1.0, 1.0
148,0.0228,0.132,3.45,0.132,3.45,-0.31085704850119594,0.0,0.95045667728578,0.0,1.0,-0.0,1.0,1.0,1.0, 1.0
149,0.0228,0.132,3.45,0.132,3.45,-0.3104219650939924,0.0,0.9505988657615704,0.0,1.0,-0.0,1.0,1.0,1.0, 1.0
150,0.0228,0.132,3.45,0.132,3.45,-0.3101804147740085,0.0,0.9506777110517655,0.0,1.0,-0.0,1.0,1.0,1.0, 1.0
151,0.0228,0.132,3.45,0.132,3.45,-0.3101555165605924,0.0,0.9506858343043889,0.0,1.0,-0.0,1.0,1.0,1.0, 1.0
152,0.0228,0.132,3.45,0.132,3.45,-0.31037076607124203,0.0,0.950615583487011,0.0,1.0,-0.0,1.0,1.0,1.0, 1.0
153,0.0228,0.132,3.45,0.132,3.45,-0.3108784066360503,0.0,0.9504496916130967,0.0,1.0,-0.0,1.0,1.0,1.0, 1.0
154,0.0228,0.132,3.45,0.132,3.45,-0.311745281971886,0.0,0.9501657114252594,0.0,1.0,-0.0,1.0,1.0,1.0, 1.0
155,0.0228,0.132,3.45,0.132,3.45,-0.3130619303562258,0.0,0.9497327138524994,0.0,1.0,-0.0,1.0,1.0,1.0, 1.0
156,0.0228,0.132,3.45,0.132,3.45,-0.31495595231838186,0.0,0.9491062891474386,0.0,1.0,-0.0,1.0,1.0,1.0, 1.0
157,0.0228,0.132,3.45,0.132,3.45,-0.3175809795535945,0.0,0.9482311540050662,0.0,1.0,-0.0,1.0,1.0,1.0, 1.0
158,0.0228,0.132,3.45,0.132,3.45,-0.3212927713752833,0.0,0.9469799127024765,0.0,1.0,-0.0,1.0,1.0,1.0, 1.0
159,0.0228,0.132,3.45,0.132,3.45,-0.3271376724839504,0.0,0.9449766892584089,0.0,1.0,-0.0,1.0,1.0,1.0, 1.0
160,0.0228,0.132,3.45,0.132,3.45,-0.33720551281594796,0.0,0.9414310607402613,0.0,1.0,-0.0,1.0,1.0,1.0, 1.0
161,0.0228,0.132,3.45,0.132,3.45,-0.2661832082549987,0.0,0.96392245520222,0.0,1.0,-0.0,1.0,1.0,1.0, 1.0
162,0.0228,0.132,3.45,0.132,3.45,-0.2651811412168156,0.0,0.9641986114608064,0.0,1.0,-0.0,1.0,1.0,1.0, 1.0
163,0.0228,0.132,3.45,0.132,3.45,-0.26430968240893743,0.0,0.9644378631020697,0.0,1.0,-0.0,1.0,1.0,1.0, 1.0
164,0.0228,0.132,3.45,0.132,3.45,-0.2636038704620489,0.0,0.9646310172690008,0.0,1.0,-0.0,1.0,1.0,1.0, 1.0
165,0.0228,0.132,3.45,0.132,3.45,-0.2630763630521452,0.0,0.9647750137743286,0.0,1.0,-0.0,1.0,1.0,1.0, 1.0
166,0.0228,0.132,3.45,0.132,3.45,-0.2627347995367825,0.0,0.9648680868970465,0.0,1.0,-0.0,1.0,1.0,1.0, 1.0
167,0.0228,0.132,3.45,0.132,3.45,-0.26259902088388576,0.0,0.9649050493342983,0.0,1.0,-0.0,1.0,1.0,1.0, 1.0
168,0.0228,0.132,3.45,0.132,3.45,-0.2626945702493364,0.0,0.9648790404820268,0.0,1.0,-0.0,1.0,1.0,1.0, 1.0
169,0.0228,0.132,3.45,0.132,3.45,-0.26306682922075497,0.0,0.9647776134238077,0.0,1.0,-0.0,1.0,1.0,1.0, 1.0
170,0.0228,0.132,3.45,0.132,3.45,-0.26378223960889025,0.0,0.9645822567655483,0.0,1.0,-0.0,1.0,1.0,1.0, 1.0
171,0.0228,0.132,3.45,0.132,3.45,-0.2649241646511412,0.0,0.9642692502532137,0.0,1.0,-0.0,1.0,1.0,1.0, 1.0
172,0.0228,0.132,3.45,0.132,3.45,-0.2666082864746998,0.0,0.9638049707191929,0.0,1.0,-0.0,1.0,1.0,1.0, 1.0
173,0.0228,0.132,3.45,0.132,3.45,-0.2689770430071656,0.0,0.9631465881864097,0.0,1.0,-0.0,1.0,1.0,1.0, 1.0
174,0.0228,0.132,3.45,0.132,3.45,-0.2723494482841747,0.0,0.9621984088634246,0.0,1.0,-0.0,1.0,1.0,1.0, 1.0
175,0.0228,0.132,3.45,0.132,3.45,-0.2776631413038677,0.0,0.9606784997913028,0.0,1.0,-0.0,1.0,1.0,1.0, 1.0
176,0.0228,0.132,3.45,0.132,3.45,-0.2868009921824745,0.0,0.9579901830828687,0.0,1.0,-0.0,1.0,1.0,1.0, 1.0
177,0.0228,0.132,3.45,0.132,3.45,-0.21856656364869856,0.0,0.975822041795941,0.0,1.0,-0.0,1.0,1.0,1.0, 1.0
178,0.0228,0.132,3.45,0.132,3.45,-0.2175498908770427,0.0,0.9760492021303981,0.0,1.0,-0.0,1.0,1.0,1.0, 1.0
179,0.0228,0.132,3.45,0.132,3.45,-0.21665632889907693,0.0,0.9762479373335315,0.0,1.0,-0.0,1.0,1.0,1.0, 1.0
180,0.0228,0.132,3.45,0.132,3.45,-0.21591553190241689,0.0,0.976412045748769,0.0,1.0,-0.0,1.0,1.0,1.0, 1.0
181,0.0228,0.132,3.45,0.132,3.45,-0.21534123379958975,0.0,0.9765388640631106,0.0,1.0,-0.0,1.0,1.0,1.0, 1.0
182,0.0228,0.132,3.45,0.132,3.45,-0.21493649255225142,0.0,0.9766280275362447,0.0,1.0,-0.0,1.0,1.0,1.0, 1.0
183,0.0228,0.132,3.45,0.132,3.45,-0.21471579639552674,0.0,0.9766765722480676,0.0,1.0,-0.0,1.0,1.0,1.0, 1.0
184,0.0228,0.132,3.45,0.132,3.45,-0.21470892021598306,0.0,0.9766780839046644,0.0,1.0,-0.0,1.0,1.0,1.0, 1.0
185,0.0228,0.132,3.45,0.132,3.45,-0.21495665766286245,0.0,0.9766235893763835,0.0,1.0,-0.0,1.0,1.0,1.0, 1.0
186,0.0228,0.132,3.45,0.132,3.45,-0.21551469269447285,0.0,0.9765005976612645,0.0,1.0,-0.0,1.0,1.0,1.0, 1.0
187,0.0228,0.132,3.45,0.132,3.45,-0.21645587079670917,0.0,0.9762924029191451,0.0,1.0,-0.0,1.0,1.0,1.0, 1.0
188,0.0228,0.132,3.45,0.132,3.45,-0.21788522379203645,0.0,0.9759743998963776,0.0,1.0,-0.0,1.0,1.0,1.0, 1.0
189,0.0228,0.132,3.45,0.132,3.45,-0.2199284595524255,0.0,0.9755160032920511,0.0,1.0,-0.0,1.0,1.0,1.0, 1.0
190,0.0228,0.132,3.45,0.132,3.45,-0.22285871709133337,0.0,0.9748507538164009,0.0,1.0,-0.0,1.0,1.0,1.0, 1.0
191,0.0228,0.132,3.45,0.132,3.45,-0.227481428282336,0.0,0.973782419119707,0.0,1.0,-0.0,1.0,1.0,1.0, 1.0
192,0.0228,0.132,3.45,0.132,3.45,-0.23542400620702197,0.0,0.9718927601857297,0.0,1.0,-0.0,1.0,1.0,1.0, 1.0
193,0.0228,0.132,3.45,0.132,3.45,-0.17045905187337296,0.0,0.985364760702569,0.0,1.0,-0.0,1.0,1.0,1.0, 1.0
194,0.0228,0.132,3.45,0.132,3.45,-0.16950547970948204,0.0,0.9855292447961442,0.0,1.0,-0.0,1.0,1.0,1.0, 1.0
195,0.0228,0.132,3.45,0.132,3.45,-0.16866142020870578,0.0,0.9856740461903125,0.0,1.0,-0.0,1.0,1.0,1.0, 1.0
196,0.0228,0.132,3.45,0.132,3.45,-0.16795299100127475,0.0,0.9857950054720939,0.0,1.0,-0.0,1.0,1.0,1.0, 1.0
197,0.0228,0.132,3.45,0.132,3.45,-0.1673889428029974,0.0,0.9858909380997956,0.0,1.0,-0.0,1.0,1.0,1.0, 1.0
198,0.0228,0.132,3.45,0.132,3.45,-0.16697260105358877,0.0,0.9859615360131445,0.0,1.0,-0.0,1.0,1.0,1.0, 1.0
199,0.0228,0.132,3.45,0.132,3.45,-0.16671423891506332,0.0,0.9860052548252323,0.0,1.0,-0.0,1.0,1.0,1.0, 1.0
200,0.0228,0.132,3.45,0.132,3.45,-0.1666362924014971,0.0,0.9860184308899518,0.0,1.0,-0.0,1.0,1.0,1.0, 1.0
201,0.0228,0.132,3.45,0.132,3.45,-0.16677497676491326,0.0,0.985994983316377,0.0,1.0,-0.0,1.0,1.0,1.0, 1.0
202,0.0228,0.132,3.45,0.132,3.45,-0.16717877707184617,0.0,0.9859265979254044,0.0,1.0,-0.0,1.0,1.0,1.0, 1.0
203,0.0228,0.132,3.45,0.132,3.45,-0.16791023595808569,0.0,0.9858022888290026,0.0,1.0,-0.0,1.0,1.0,1.0, 1.0
204,0.0228,0.132,3.45,0.132,3.45,-0.1690540668702691,0.0,0.9856067788294796,0.0,1.0,-0.0,1.0,1.0,1.0, 1.0
205,0.0228,0.132,3.45,0.132,3.45,-0.17071497769482485,0.0,0.9853204536548784,0.0,1.0,-0.0,1.0,1.0,1.0, 1.0
206,0.0228,0.132,3.45,0.132,3.45,-0.1731159792661295,0.0,0.9849014456902421,0.0,1.0,-0.0,1.0,1.0,1.0, 1.0
207,0.0228,0.132,3.45,0.132,3.45,-0.17690656832053347,0.0,0.9842276495227374,0.0,1.0,-0.0,1.0,1.0,1.0, 1.0
208,0.0228,0.132,3.45,0.132,3.45,-0.18340869542722243,0.0,0.9830367492834051,0.0,1.0,-0.0,1.0,1.0,1.0, 1.0
209,0.0228,0.132,3.45,0.132,3.45,-0.121987527354587,0.0,0.9925316333346327,0.0,1.0,-0.0,1.0,1.0,1.0, 1.0
210,0.0228,0.132,3.45,0.132,3.45,-0.12118475774953599,0.0,0.9926299685629012,0.0,1.0,-0.0,1.0,1.0,1.0, 1.0
211,0.0228,0.132,3.45,0.132,3.45,-0.12047265057474564,0.0,0.9927166466134711,0.0,1.0,-0.0,1.0,1.0,1.0, 1.0
212,0.0228,0.132,3.45,0.132,3.45,-0.11987230481218743,0.0,0.9927893183042483,0.0,1.0,-0.0,1.0,1.0,1.0, 1.0
213,0.0228,0.132,3.45,0.132,3.45,-0.11938745050914239,0.0,0.9928477409255293,0.0,1.0,-0.0,1.0,1.0,1.0, 1.0
214,0.0228,0.132,3.45,0.132,3.45,-0.11901878252731687,0.0,0.9928920028914097,0.0,1.0,-0.0,1.0,1.0,1.0, 1.0
215,0.0228,0.132,3.45,0.132,3.45,-0.11877455671064319,0.0,0.9929212479739722,0.0,1.0,-0.0,1.0,1.0,1.0, 1.0
216,0.0228,0.132,3.45,0.132,3.45,-0.11866806623627398,0.0,0.9929339807135937,0.0,1.0,-0.0,1.0,1.0,1.0, 1.0
217,0.0228,0.132,3.45,0.132,3.45,-0.11872790828634433,0.0,0.9929268270088938,0.0,1.0,-0.0,1.0,1.0,1.0, 1.0
218,0.0228,0.132,3.45,0.132,3.45,-0.11899434798232379,0.0,0.9928949315754722,0.0,1.0,-0.0,1.0,1.0,1.0, 1.0
219,0.0228,0.132,3.45,0.132,3.45,-0.11951554415549075,0.0,0.9928323296031496,0.0,1.0,-0.0,1.0,1.0,1.0, 1.0
220,0.0228,0.132,3.45,0.132,3.45,-0.12035578427438567,0.0,0.9927308221223403,0.0,1.0,-0.0,1.0,1.0,1.0, 1.0
221,0.0228,0.132,3.45,0.132,3.45,-0.12159252572781819,0.0,0.9925801013959176,0.0,1.0,-0.0,1.0,1.0,1.0, 1.0
222,0.0228,0.132,3.45,0.132,3.45,-0.12339058273207965,0.0,0.9923581833657834,0.0,1.0,-0.0,1.0,1.0,1.0, 1.0
223,0.0228,0.132,3.45,0.132,3.45,-0.12622683471922713,0.0,0.9920014043320529,0.0,1.0,-0.0,1.0,1.0,1.0, 1.0
224,0.0228,0.132,3.45,0.132,3.45,-0.13107563024510965,0.0,0.9913723715919499,0.0,1.0,-0.0,1.0,1.0,1.0, 1.0
225,0.0228,0.132,3.45,0.132,3.45,-0.07326781540226192,0.0,0.9973123017521542,0.0,1.0,-0.0,1.0,1.0,1.0, 1.0
226,0.0228,0.132,3.45,0.132,3.45,-0.07270980996943054,0.0,0.9973531388300781,0.0,1.0,-0.0,1.0,1.0,1.0, 1.0
227,0.0228,0.132,3.45,0.132,3.45,-0.0722214440673293,0.0,0.9973886218605211,0.0,1.0,-0.0,1.0,1.0,1.0, 1.0
228,0.0228,0.132,3.45,0.132,3.45,-0.07181112130022597,0.0,0.9974182487089376,0.0,1.0,-0.0,1.0,1.0,1.0, 1.0
229,0.0228,0.132,3.45,0.132,3.45,-0.07147854817391106,0.0,0.997442137244537,0.0,1.0,-0.0,1.0,1.0,1.0, 1.0
230,0.0228,0.132,3.45,0.132,3.45,-0.07122095399512483,0.0,0.9974605634871107,0.0,1.0,-0.0,1.0,1.0,1.0, 1.0
231,0.0228,0.132,3.45,0.132,3.45,-0.0710430800270722,0.0,0.9974732481526846,0.0,1.0,-0.0,1.0,1.0,1.0, 1.0
232,0.0228,0.132,3.45,0.132,3.45,-0.07095402614268187,0.0,0.997479586845838,0.0,1.0,-0.0,1.0,1.0,1.0, 1.0
233,0.0228,0.132,3.45,0.132,3.45,-0.07097146490239709,0.0,0.9974783462159004,0.0,1.0,-0.0,1.0,1.0,1.0, 1.0
234,0.0228,0.132,3.45,0.132,3.45,-0.07112174731227386,0.0,0.9974676421113865,0.0,1.0,-0.0,1.0,1.0,1.0, 1.0
235,0.0228,0.132,3.45,0.132,3.45,-0.07143776231098953,0.0,0.9974450591967452,0.0,1.0,-0.0,1.0,1.0,1.0, 1.0
236,0.0228,0.132,3.45,0.132,3.45,-0.07196093428637129,0.0,0.9974074513139717,0.0,1.0,-0.0,1.0,1.0,1.0, 1.0
237,0.0228,0.132,3.45,0.132,3.45,-0.07273921414520143,0.0,0.9973509947483576,0.0,1.0,-0.0,1.0,1.0,1.0, 1.0
238,0.0228,0.132,3.45,0.132,3.45,-0.07387276974933181,0.0,0.9972676741424853,0.0,1.0,-0.0,1.0,1.0,1.0, 1.0
239,0.0228,0.132,3.45,0.132,3.45,-0.07565061870845191,0.0,0.9971343860729246,0.0,1.0,-0.0,1.0,1.0,1.0, 1.0
240,0.0228,0.132,3.45,0.132,3.45,-0.07867036247780489,0.0,0.9969006841544502,0.0,1.0,-0.0,1.0,1.0,1.0, 1.0
241,0.0228,0.132,3.45,0.132,3.45,-0.02442395462948029,0.0,0.9997016907259171,0.0,1.0,-0.0,1.0,1.0,1.0, 1.0
242,0.0228,0.132,3.45,0.132,3.45,-0.02420952578761638,0.0,0.9997069064786632,0.0,1.0,-0.0,1.0,1.0,1.0, 1.0
243,0.0228,0.132,3.45,0.132,3.45,-0.024029638617143734,0.0,0.9997112465446857,0.0,1.0,-0.0,1.0,1.0,1.0, 1.0
244,0.0228,0.132,3.45,0.132,3.45,-0.023881180109692514,0.0,0.9997148039498905,0.0,1.0,-0.0,1.0,1.0,1.0, 1.0
245,0.0228,0.132,3.45,0.132,3.45,-0.023761211298292225,0.0,0.9997176625616044,0.0,1.0,-0.0,1.0,1.0,1.0, 1.0
246,0.0228,0.132,3.45,0.132,3.45,-0.023667839849623777,0.0,0.9997198774441031,0.0,1.0,-0.0,1.0,1.0,1.0, 1.0
247,0.0228,0.132,3.45,0.132,3.45,-0.02360221575614838,0.0,0.9997214289047724,0.0,1.0,-0.0,1.0,1.0,1.0, 1.0
248,0.0228,0.132,3.45,0.132,3.45,-0.023567234481216327,0.0,0.9997222541580774,0.0,1.0,-0.0,1.0,1.0,1.0, 1.0
249,0.0228,0.132,3.45,0.132,3.45,-0.0235687132732122,0.0,0.9997222192962628,0.0,1.0,-0.0,1.0,1.0,1.0, 1.0
250,0.0228,0.132,3.45,0.132,3.45,-0.023617439266639083,0.0,0.9997210693800981,0.0,1.0,-0.0,1.0,1.0,1.0, 1.0
251,0.0228,0.132,3.45,0.132,3.45,-0.023727320881487282,0.0,0.9997184674916167,0.0,1.0,-0.0,1.0,1.0,1.0, 1.0
252,0.0228,0.132,3.45,0.132,3.45,-0.023912467508638492,0.0,0.9997140560668578,0.0,1.0,-0.0,1.0,1.0,1.0, 1.0
253,0.0228,0.132,3.45,0.132,3.45,-0.024188895813045407,0.0,0.9997074058540056,0.0,1.0,-0.0,1.0,1.0,1.0, 1.0
254,0.0228,0.132,3.45,0.132,3.45,-0.024589639532735217,0.0,0.9996976290997444,0.0,1.0,-0.0,1.0,1.0,1.0, 1.0
255,0.0228,0.132,3.45,0.132,3.45,-0.025210551870996974,0.0,0.9996821635271682,0.0,1.0,-0.0,1.0,1.0,1.0, 1.0
256,0.0228,0.132,3.45,0.132,3.45,-0.026252205130124485,0.0,0.9996553514715989,0.0,1.0,-0.0,1.0,1.0,1.0, 1.0
257,0.0228,0.132,3.45,0.132,3.45,-0.6895344112269475,0.0,0.7242529224890341,0.0,1.0,-0.0,1.0,1.0,1.0, 1.0
258,0.0228,0.132,3.45,0.132,3.45,-0.6895252477226463,0.0,0.7242616466119294,0.0,1.0,-0.0,1.0,1.0,1.0, 1.0
259,0.0228,0.132,3.45,0.132,3.45,-0.6895231887393247,0.0,0.7242636068385279,0.0,1.0,-0.0,1.0,1.0,1.0, 1.0
260,0.0228,0.132,3.45,0.132,3.45,-0.6895370897409412,0.0,0.7242503723655191,0.0,1.0,-0.0,1.0,1.0,1.0, 1.0
261,0.0228,0.132,3.45,0.132,3.45,-0.6895607961497319,0.0,0.7242278014639785,0.0,1.0,-0.0,1.0,1.0,1.0, 1.0
262,0.0228,0.132,3.45,0.132,3.45,-0.6896054696394988,0.0,0.7241852637573388,0.0,1.0,-0.0,1.0,1.0,1.0, 1.0
263,0.0228,0.132,3.45,0.132,3.45,-0.6896746541622635,0.0,0.7241193764885472,0.0,1.0,-0.0,1.0,1.0,1.0, 1.0
264,0.0228,0.132,3.45,0.132,3.45,-0.6897639306895177,0.0,0.7240343361469441,0.0,1.0,-0.0,1.0,1.0,1.0, 1.0
265,0.0228,0.132,3.45,0.132,3.45,-0.6898867442813101,0.0,0.7239173157653672,0.0,1.0,-0.0,1.0,1.0,1.0, 1.0
266,0.0228,0.132,3.45,0.132,3.45,-0.6900539164404508,0.0,0.7237579653483583,0.0,1.0,-0.0,1.0,1.0,1.0, 1.0
267,0.0228,0.132,3.45,0.132,3.45,-0.690284872944516,0.0,0.7235376936856666,0.0,1.0,-0.0,1.0,1.0,1.0, 1.0
268,0.0228,0.132,3.45,0.132,3.45,-0.6906177492903726,0.0,0.7232199695563586,0.0,1.0,-0.0,1.0,1.0,1.0, 1.0
269,0.0228,0.132,3.45,0.132,3.45,-0.6911220582877703,0.0,0.722738058045981,0.0,1.0,-0.0,1.0,1.0,1.0, 1.0
270,0.0228,0.132,3.45,0.132,3.45,-0.6919712498922114,0.0,0.7219250579683536,0.0,1.0,-0.0,1.0,1.0,1.0, 1.0
271,0.0228,0.132,3.45,0.132,3.45,-0.6935385896239651,0.0,0.7204194782919193,0.0,1.0,-0.0,1.0,1.0,1.0, 1.0
272,0.0228,0.132,3.45,0.132,3.45,-0.696604923261641,0.0,0.7174549330011211,0.0,1.0,-0.0,1.0,1.0,1.0, 1.0
273,0.0228,0.132,3.45,0.132,3.45,-0.6531499690963689,0.0,0.7572285770290318,0.0,1.0,-0.0,1.0,1.0,1.0, 1.0
274,0.0228,0.132,3.45,0.132,3.45,-0.6531109532894167,0.0,0.7572622284871928,0.0,1.0,-0.0,1.0,1.0,1.0, 1.0
275,0.0228,0.132,3.45,0.132,3.45,-0.6531021764886272,0.0,0.7572697980679133,0.0,1.0,-0.0,1.0,1.0,1.0, 1.0
276,0.0228,0.132,3.45,0.132,3.45,-0.6531399641491907,0.0,0.7572372067134536,0.0,1.0,-0.0,1.0,1.0,1.0, 1.0
277,0.0228,0.132,3.45,0.132,3.45,-0.6532132671490909,0.0,0.7571739744737732,0.0,1.0,-0.0,1.0,1.0,1.0, 1.0
278,0.0228,0.132,3.45,0.132,3.45,-0.6533358875520947,0.0,0.7570681726479568,0.0,1.0,-0.0,1.0,1.0,1.0, 1.0
279,0.0228,0.132,3.45,0.132,3.45,-0.6535281116446734,0.0,0.7569022442100084,0.0,1.0,-0.0,1.0,1.0,1.0, 1.0
280,0.0228,0.132,3.45,0.132,3.45,-0.6537998091243344,0.0,0.7566675687440184,0.0,1.0,-0.0,1.0,1.0,1.0, 1.0
281,0.0228,0.132,3.45,0.132,3.45,-0.654169177714061,0.0,0.7563482577020385,0.0,1.0,-0.0,1.0,1.0,1.0, 1.0
282,0.0228,0.132,3.45,0.132,3.45,-0.6546691249629026,0.0,0.7559155619646334,0.0,1.0,-0.0,1.0,1.0,1.0, 1.0
283,0.0228,0.132,3.45,0.132,3.45,-0.6553668213694303,0.0,0.7553107502532513,0.0,1.0,-0.0,1.0,1.0,1.0, 1.0
284,0.0228,0.132,3.45,0.132,3.45,-0.6563586592220194,0.0,0.7544490111758866,0.0,1.0,-0.0,1.0,1.0,1.0, 1.0
285,0.0228,0.132,3.45,0.132,3.45,-0.6578443678810383,0.0,0.7531538937343398,0.0,1.0,-0.0,1.0,1.0,1.0, 1.0
286,0.0228,0.132,3.45,0.132,3.45,-0.6602678076597894,0.0,0.7510302405150775,0.0,1.0,-0.0,1.0,1.0,1.0, 1.0
287,0.0228,0.132,3.45,0.132,3.45,-0.6645248343850546,0.0,0.7472661804775562,0.0,1.0,-0.0,1.0,1.0,1.0, 1.0
288,0.0228,0.132,3.45,0.132,3.45,-0.672265071849247,0.0,0.7403105248282822,0.0,1.0,-0.0,1.0,1.0,1.0, 1.0
289,0.0228,0.132,3.45,0.132,3.45,-0.6151855927359227,0.0,0.7883823225378352,0.0,1.0,-0.0,1.0,1.0,1.0, 1.0
290,0.0228,0.132,3.45,0.132,3.45,-0.6150982370767968,0.0,0.7884504795768831,0.0,1.0,-0.0,1.0,1.0,1.0, 1.0
291,0.0228,0.132,3.45,0.132,3.45,-0.61505821581038,0.0,0.7884816999551428,0.0,1.0,-0.0,1.0,1.0,1.0, 1.0
292,0.0228,0.132,3.45,0.132,3.45,-0.61508763157362,0.0,0.7884587531920454,0.0,1.0,-0.0,1.0,1.0,1.0, 1.0
293,0.0228,0.132,3.45,0.132,3.45,-0.6151911886847815,0.0,0.7883779559098577,0.0,1.0,-0.0,1.0,1.0,1.0, 1.0
294,0.0228,0.132,3.45,0.132,3.45,-0.6153752405692018,0.0,0.7882343010135991,0.0,1.0,-0.0,1.0,1.0,1.0, 1.0
295,0.0228,0.132,3.45,0.132,3.45,-0.6156639860264747,0.0,0.7880087920258205,0.0,1.0,-0.0,1.0,1.0,1.0, 1.0
296,0.0228,0.132,3.45,0.132,3.45,-0.6160893644891542,0.0,0.7876762627903358,0.0,1.0,-0.0,1.0,1.0,1.0, 1.0
297,0.0228,0.132,3.45,0.132,3.45,-0.6166805542670665,0.0,0.7872134996231097,0.0,1.0,-0.0,1.0,1.0,1.0, 1.0
298,0.0228,0.132,3.45,0.132,3.45,-0.6174828263352842,0.0,0.7865843624055778,0.0,1.0,-0.0,1.0,1.0,1.0, 1.0
299,0.0228,0.132,3.45,0.132,3.45,-0.6186043144421842,0.0,0.7857026805054919,0.0,1.0,-0.0,1.0,1.0,1.0, 1.0
300,0.0228,0.132,3.45,0.132,3.45,-0.6201894006488302,0.0,0.7844521064557382,0.0,1.0,-0.0,1.0,1.0,1.0, 1.0
301,0.0228,0.132,3.45,0.132,3.45,-0.622512128423042,0.0,0.7826101519698131,0.0,1.0,-0.0,1.0,1.0,1.0, 1.0
302,0.0228,0.132,3.45,0.132,3.45,-0.6261579625309291,0.0,0.7796962267185313,0.0,1.0,-0.0,1.0,1.0,1.0, 1.0
303,0.0228,0.132,3.45,0.132,3.45,-0.6322232223070686,0.0,0.7747862912930681,0.0,1.0,-0.0,1.0,1.0,1.0, 1.0
304,0.0228,0.132,3.45,0.132,3.45,-0.6423785933719839,0.0,0.7663874625653992,0.0,1.0,-0.0,1.0,1.0,1.0, 1.0
305,0.0228,0.132,3.45,0.132,3.45,-0.5757229602225948,0.0,0.8176448330861832,0.0,1.0,-0.0,1.0,1.0,1.0, 1.0
306,0.0228,0.132,3.45,0.132,3.45,-0.5755634576214606,0.0,0.8177571193519682,0.0,1.0,-0.0,1.0,1.0,1.0, 1.0
307,0.0228,0.132,3.45,0.132,3.45,-0.5754561492463441,0.0,0.8178326358703039,0.0,1.0,-0.0,1.0,1.0,1.0, 1.0
308,0.0228,0.132,3.45,0.132,3.45,-0.5754378295909036,0.0,0.8178455259251042,0.0,1.0,-0.0,1.0,1.0,1.0, 1.0
309,0.0228,0.132,3.45,0.132,3.45,-0.575535086513267,0.0,0.8177770871039162,0.0,1.0,-0.0,1.0,1.0,1.0, 1.0
310,0.0228,0.132,3.45,0.132,3.45,-0.5757503674179016,0.0,0.8176255343481826,0.0,1.0,-0.0,1.0,1.0,1.0, 1.0
311,0.0228,0.132,3.45,0.132,3.45,-0.5761009114598696,0.0,0.8173785780255729,0.0,1.0,-0.0,1.0,1.0,1.0, 1.0
312,0.0228,0.132,3.45,0.132,3.45,-0.5766341826812503,0.0,0.8170024598270965,0.0,1.0,-0.0,1.0,1.0,1.0, 1.0
313,0.0228,0.132,3.45,0.132,3.45,-0.5773940297381862,0.0,0.8164656357879972,0.0,1.0,-0.0,1.0,1.0,1.0, 1.0
314,0.0228,0.132,3.45,0.132,3.45,-0.5784457305924923,0.0,0.8157208693905764,0.0,1.0,-0.0,1.0,1.0,1.0, 1.0
315,0.0228,0.132,3.45,0.132,3.45,-0.5799090408797741,0.0,0.8146812286446156,0.0,1.0,-0.0,1.0,1.0,1.0, 1.0
316,0.0228,0.132,3.45,0.132,3.45,-0.581969064288386,0.0,0.8132109247982964,0.0,1.0,-0.0,1.0,1.0,1.0, 1.0
317,0.0228,0.132,3.45,0.132,3.45,-0.5849463912476607,0.0,0.8110719569596392,0.0,1.0,-0.0,1.0,1.0,1.0, 1.0
318,0.0228,0.132,3.45,0.132,3.45,-0.5894652629647251,0.0,0.8077937259956451,0.0,1.0,-0.0,1.0,1.0,1.0, 1.0
319,0.0228,0.132,3.45,0.132,3.45,-0.5966864434592221,0.0,0.8024744782184569,0.0,1.0,-0.0,1.0,1.0,1.0, 1.0
320,0.0228,0.132,3.45,0.132,3.45,-0.6082148593891124,0.0,0.7937724389384418,0.0,1.0,-0.0,1.0,1.0,1.0, 1.0
321,0.0228,0.132,3.45,0.132,3.45,-0.5348525256556248,0.0,0.8449454277051266,0.0,1.0,-0.0,1.0,1.0,1.0, 1.0
322,0.0228,0.132,3.45,0.132,3.45,-0.5345854476988381,0.0,0.8451144295943792,0.0,1.0,-0.0,1.0,1.0,1.0, 1.0
323,0.0228,0.132,3.45,0.132,3.45,-0.5343885888641914,0.0,0.8452389224898119,0.0,1.0,-0.0,1.0,1.0,1.0, 1.0
324,0.0228,0.132,3.45,0.132,3.45,-0.5342944492067196,0.0,0.8452984334227103,0.0,1.0,-0.0,1.0,1.0,1.0, 1.0
325,0.0228,0.132,3.45,0.132,3.45,-0.5343394176445532,0.0,0.8452700081934055,0.0,1.0,-0.0,1.0,1.0,1.0, 1.0
326,0.0228,0.132,3.45,0.132,3.45,-0.5345411633633804,0.0,0.8451424404620348,0.0,1.0,-0.0,1.0,1.0,1.0, 1.0
327,0.0228,0.132,3.45,0.132,3.45,-0.534911369874361,0.0,0.8449081763003211,0.0,1.0,-0.0,1.0,1.0,1.0, 1.0
328,0.0228,0.132,3.45,0.132,3.45,-0.5355059255582207,0.0,0.8445314699240244,0.0,1.0,-0.0,1.0,1.0,1.0, 1.0
329,0.0228,0.132,3.45,0.132,3.45,-0.536375025122238,0.0,0.8439797583029576,0.0,1.0,-0.0,1.0,1.0,1.0, 1.0
330,0.0228,0.132,3.45,0.132,3.45,-0.537603114030591,0.0,0.843198014575824,0.0,1.0,-0.0,1.0,1.0,1.0, 1.0
331,0.0228,0.132,3.45,0.132,3.45,-0.5393212023671672,0.0,0.8421001369654519,0.0,1.0,-0.0,1.0,1.0,1.0, 1.0
332,0.0228,0.132,3.45,0.132,3.45,-0.5417259901360142,0.0,0.8405551448960116,0.0,1.0,-0.0,1.0,1.0,1.0, 1.0
333,0.0228,0.132,3.45,0.132,3.45,-0.5451693652462174,0.0,0.8383259289781251,0.0,1.0,-0.0,1.0,1.0,1.0, 1.0
334,0.0228,0.132,3.45,0.132,3.45,-0.5502805389798564,0.0,0.8349798371338308,0.0,1.0,-0.0,1.0,1.0,1.0, 1.0
335,0.0228,0.132,3.45,0.132,3.45,-0.5582209312637485,0.0,0.8296923477404341,0.0,1.0,-0.0,1.0,1.0,1.0, 1.0
336,0.0228,0.132,3.45,0.132,3.45,-0.5705665094736762,0.0,0.8212513977260711,0.0,1.0,-0.0,1.0,1.0,1.0, 1.0
337,0.0228,0.132,3.45,0.132,3.45,-0.49268412774726433,0.0,0.8702082223617043,0.0,1.0,-0.0,1.0,1.0,1.0, 1.0
338,0.0228,0.132,3.45,0.132,3.45,-0.4922817321789668,0.0,0.8704359230654926,0.0,1.0,-0.0,1.0,1.0,1.0, 1.0
339,0.0228,0.132,3.45,0.132,3.45,-0.49196656411733514,0.0,0.8706140934941174,0.0,1.0,-0.0,1.0,1.0,1.0, 1.0
340,0.0228,0.132,3.45,0.132,3.45,-0.4917695359598939,0.0,0.8707254007445692,0.0,1.0,-0.0,1.0,1.0,1.0, 1.0
341,0.0228,0.132,3.45,0.132,3.45,-0.4917271527386558,0.0,0.8707493366403071,0.0,1.0,-0.0,1.0,1.0,1.0, 1.0
342,0.0228,0.132,3.45,0.132,3.45,-0.49187484252858127,0.0,0.8706659171504783,0.0,1.0,-0.0,1.0,1.0,1.0, 1.0
343,0.0228,0.132,3.45,0.132,3.45,-0.4922223272308675,0.0,0.8704695173154707,0.0,1.0,-0.0,1.0,1.0,1.0, 1.0
344,0.0228,0.132,3.45,0.132,3.45,-0.49282588818703166,0.0,0.8701279468748624,0.0,1.0,-0.0,1.0,1.0,1.0, 1.0
345,0.0228,0.132,3.45,0.132,3.45,-0.4937478343008301,0.0,0.869605126550689,0.0,1.0,-0.0,1.0,1.0,1.0, 1.0
346,0.0228,0.132,3.45,0.132,3.45,-0.49507365608152554,0.0,0.8688510085475366,0.0,1.0,-0.0,1.0,1.0,1.0, 1.0
347,0.0228,0.132,3.45,0.132,3.45,-0.4969555980289667,0.0,0.8677759696993643,0.0,1.0,-0.0,1.0,1.0,1.0, 1.0
348,0.0228,0.132,3.45,0.132,3.45,-0.49958658486687213,0.0,0.8662639575909039,0.0,1.0,-0.0,1.0,1.0,1.0, 1.0
349,0.0228,0.132,3.45,0.132,3.45,-0.5033228623834523,0.0,0.8640984296954417,0.0,1.0,-0.0,1.0,1.0,1.0, 1.0
350,0.0228,0.132,3.45,0.132,3.45,-0.508807834485941,0.0,0.8608801238068674,0.0,1.0,-0.0,1.0,1.0,1.0, 1.0
351,0.0228,0.132,3.45,0.132,3.45,-0.5171676247191493,0.0,0.8558841323113503,0.0,1.0,-0.0,1.0,1.0,1.0, 1.0
352,0.0228,0.132,3.45,0.132,3.45,-0.5299524031253355,0.0,0.8480273877780609,0.0,1.0,-0.0,1.0,1.0,1.0, 1.0
353,0.0228,0.132,3.45,0.132,3.45,-0.449316128969157,0.0,0.8933728316040128,0.0,1.0,-0.0,1.0,1.0,1.0, 1.0
354,0.0228,0.132,3.45,0.132,3.45,-0.4487633627555152,0.0,0.8936506276215341,0.0,1.0,-0.0,1.0,1.0,1.0, 1.0
355,0.0228,0.132,3.45,0.132,3.45,-0.4483096569954003,0.0,0.8938783202677345,0.0,1.0,-0.0,1.0,1.0,1.0, 1.0
356,0.0228,0.132,3.45,0.132,3.45,-0.44799742591307995,0.0,0.8940348462869077,0.0,1.0,-0.0,1.0,1.0,1.0, 1.0
357,0.0228,0.132,3.45,0.132,3.45,-0.4478521878325322,0.0,0.8941076097727914,0.0,1.0,-0.0,1.0,1.0,1.0, 1.0
358,0.0228,0.132,3.45,0.132,3.45,-0.4479065960143332,0.0,0.8940803550279208,0.0,1.0,-0.0,1.0,1.0,1.0, 1.0
359,0.0228,0.132,3.45,0.132,3.45,-0.4481914472213655,0.0,0.8939375966126596,0.0,1.0,-0.0,1.0,1.0,1.0, 1.0
360,0.0228,0.132,3.45,0.132,3.45,-0.44875802437301776,0.0,0.8936533083701006,0.0,1.0,-0.0,1.0,1.0,1.0, 1.0
361,0.0228,0.132,3.45,0.132,3.45,-0.4496718372808904,0.0,0.8931938416471692,0.0,1.0,-0.0,1.0,1.0,1.0, 1.0
362,0.0228,0.132,3.45,0.132,3.45,-0.45102956155624013,0.0,0.8925090109362404,0.0,1.0,-0.0,1.0,1.0,1.0, 1.0
363,0.0228,0.132,3.45,0.132,3.45,-0.45298227615805026,0.0,0.8915195216520343,0.0,1.0,-0.0,1.0,1.0,1.0, 1.0
364,0.0228,0.132,3.45,0.132,3.45,-0.45573121774212244,0.0,0.8901174401028676,0.0,1.0,-0.0,1.0,1.0,1.0, 1.0
365,0.0228,0.132,3.45,0.132,3.45,-0.4596199613846425,0.0,0.8881156969093496,0.0,1.0,-0.0,1.0,1.0,1.0, 1.0
366,0.0228,0.132,3.45,0.132,3.45,-0.4652770779673805,0.0,0.8851650923517806,0.0,1.0,-0.0,1.0,1.0,1.0, 1.0
367,0.0228,0.132,3.45,0.132,3.45,-0.4738032872373771,0.0,0.8806307086418549,0.0,1.0,-0.0,1.0,1.0,1.0, 1.0
368,0.0228,0.132,3.45,0.132,3.45,-0.48671801489340866,0.0,0.8735591416602655,0.0,1.0,-0.0,1.0,1.0,1.0, 1.0
369,0.0228,0.132,3.45,0.132,3.45,-0.40486652274528817,0.0,0.9143757973394413,0.0,1.0,-0.0,1.0,1.0,1.0, 1.0
370,0.0228,0.132,3.45,0.132,3.45,-0.4041643330344252,0.0,0.9146863899188826,0.0,1.0,-0.0,1.0,1.0,1.0, 1.0
371,0.0228,0.132,3.45,0.132,3.45,-0.4035696399518885,0.0,0.9149489306562979,0.0,1.0,-0.0,1.0,1.0,1.0, 1.0
372,0.0228,0.132,3.45,0.132,3.45,-0.4031272742389255,0.0,0.9151439235249799,0.0,1.0,-0.0,1.0,1.0,1.0, 1.0
373,0.0228,0.132,3.45,0.132,3.45,-0.402867399292293,0.0,0.91525835619647,0.0,1.0,-0.0,1.0,1.0,1.0, 1.0
374,0.0228,0.132,3.45,0.132,3.45,-0.4028146102765346,0.0,0.9152815904123515,0.0,1.0,-0.0,1.0,1.0,1.0, 1.0
375,0.0228,0.132,3.45,0.132,3.45,-0.40300847774838183,0.0,0.9151962450004546,0.0,1.0,-0.0,1.0,1.0,1.0, 1.0
376,0.0228,0.132,3.45,0.132,3.45,-0.4035001356667739,0.0,0.9149795847541601,0.0,1.0,-0.0,1.0,1.0,1.0, 1.0
377,0.0228,0.132,3.45,0.132,3.45,-0.40435673726036464,0.0,0.9146013497869728,0.0,1.0,-0.0,1.0,1.0,1.0, 1.0
378,0.0228,0.132,3.45,0.132,3.45,-0.4056866244038949,0.0,0.9140122333862788,0.0,1.0,-0.0,1.0,1.0,1.0, 1.0
379,0.0228,0.132,3.45,0.132,3.45,-0.4076285595532769,0.0,0.9131478289064267,0.0,1.0,-0.0,1.0,1.0,1.0, 1.0
380,0.0228,0.132,3.45,0.132,3.45,-0.4103846744398863,0.0,0.9119125062114612,0.0,1.0,-0.0,1.0,1.0,1.0, 1.0
381,0.0228,0.132,3.45,0.132,3.45,-0.41429014748793996,0.0,0.9101448641257176,0.0,1.0,-0.0,1.0,1.0,1.0, 1.0
382,0.0228,0.132,3.45,0.132,3.45,-0.41994072485311373,0.0,0.9075515344099427,0.0,1.0,-0.0,1.0,1.0,1.0, 1.0
383,0.0228,0.132,3.45,0.132,3.45,-0.4283999299344245,0.0,0.9035892319146904,0.0,1.0,-0.0,1.0,1.0,1.0, 1.0
384,0.0228,0.132,3.45,0.132,3.45,-0.44115610363952174,0.0,0.8974303829387522,0.0,1.0,-0.0,1.0,1.0,1.0, 1.0
385,0.0228,0.132,3.45,0.132,3.45,-0.35945283953745544,0.0,0.9331632526779332,0.0,1.0,-0.0,1.0,1.0,1.0, 1.0
386,0.0228,0.132,3.45,0.132,3.45,-0.35861532938468355,0.0,0.9334854286652335,0.0,1.0,-0.0,1.0,1.0,1.0, 1.0
387,0.0228,0.132,3.45,0.132,3.45,-0.3578882560127589,0.0,0.9337644222223,0.0,1.0,-0.0,1.0,1.0,1.0, 1.0
388,0.0228,0.132,3.45,0.132,3.45,-0.3573197282100043,0.0,0.9339821260773294,0.0,1.0,-0.0,1.0,1.0,1.0, 1.0
389,0.0228,0.132,3.45,0.132,3.45,-0.3569447920436088,0.0,0.9341254816313197,0.0,1.0,-0.0,1.0,1.0,1.0, 1.0
390,0.0228,0.132,3.45,0.132,3.45,-0.3567827494611102,0.0,0.9341873846755642,0.0,1.0,-0.0,1.0,1.0,1.0, 1.0
391,0.0228,0.132,3.45,0.132,3.45,-0.35686969362217374,0.0,0.9341541745204675,0.0,1.0,-0.0,1.0,1.0,1.0, 1.0
392,0.0228,0.132,3.45,0.132,3.45,-0.35726265962967424,0.0,0.9340039571834433,0.0,1.0,-0.0,1.0,1.0,1.0, 1.0
393,0.0228,0.132,3.45,0.132,3.45,-0.35803141183682324,0.0,0.9337095416338697,0.0,1.0,-0.0,1.0,1.0,1.0, 1.0
394,0.0228,0.132,3.45,0.132,3.45,-0.35927591823718213,0.0,0.9332313831922016,0.0,1.0,-0.0,1.0,1.0,1.0, 1.0
395,0.0228,0.132,3.45,0.132,3.45,-0.3611327855320195,0.0,0.932514402684422,0.0,1.0,-0.0,1.0,1.0,1.0, 1.0
396,0.0228,0.132,3.45,0.132,3.45,-0.3638016313249641,0.0,0.9314764479283923,0.0,1.0,-0.0,1.0,1.0,1.0, 1.0
397,0.0228,0.132,3.45,0.132,3.45,-0.3675963392348792,0.0,0.9299854468652268,0.0,1.0,-0.0,1.0,1.0,1.0, 1.0
398,0.0228,0.132,3.45,0.132,3.45,-0.37307932566471474,0.0,0.9277994485671791,0.0,1.0,-0.0,1.0,1.0,1.0, 1.0
399,0.0228,0.132,3.45,0.132,3.45,-0.3812581383777689,0.0,0.9244686213824233,0.0,1.0,-0.0,1.0,1.0,1.0, 1.0
400,0.0228,0.132,3.45,0.132,3.45,-0.3935574769988453,0.0,0.9193000121278707,0.0,1.0,-0.0,1.0,1.0,1.0, 1.0
401,0.0228,0.132,3.45,0.132,3.45,-0.31318332325070175,0.0,0.9496926903149495,0.0,1.0,-0.0,1.0,1.0,1.0, 1.0
402,0.0228,0.132,3.45,0.132,3.45,-0.3122392485484618,0.0,0.9500035008703347,0.0,1.0,-0.0,1.0,1.0,1.0, 1.0
403,0.0228,0.132,3.45,0.132,3.45,-0.31140971935740963,0.0,0.9502757424504422,0.0,1.0,-0.0,1.0,1.0,1.0, 1.0
404,0.0228,0.132,3.45,0.132,3.45,-0.310741732245849,0.0,0.9504943849601896,0.0,1.0,-0.0,1.0,1.0,1.0, 1.0
405,0.0228,0.132,3.45,0.132,3.45,-0.3102639062343015,0.0,0.9506504659906462,0.0,1.0,-0.0,1.0,1.0,1.0, 1.0
406,0.0228,0.132,3.45,0.132,3.45,-0.30999966514013616,0.0,0.9507366657560881,0.0,1.0,-0.0,1.0,1.0,1.0, 1.0
407,0.0228,0.132,3.45,0.132,3.45,-0.30998407227471325,0.0,0.9507417498648019,0.0,1.0,-0.0,1.0,1.0,1.0, 1.0
408,0.0228,0.132,3.45,0.132,3.45,-0.3102660092088389,0.0,0.9506497796400211,0.0,1.0,-0.0,1.0,1.0,1.0, 1.0
409,0.0228,0.132,3.45,0.132,3.45,-0.31091887708245375,0.0,0.9504364533590797,0.0,1.0,-0.0,1.0,1.0,1.0, 1.0
410,0.0228,0.132,3.45,0.132,3.45,-0.3120363731773618,0.0,0.9500701562591671,0.0,1.0,-0.0,1.0,1.0,1.0, 1.0
411,0.0228,0.132,3.45,0.132,3.45,-0.313748044035116,0.0,0.94950627426265,0.0,1.0,-0.0,1.0,1.0,1.0, 1.0
412,0.0228,0.132,3.45,0.132,3.45,-0.31624345495875555,0.0,0.9486780682590641,0.0,1.0,-0.0,1.0,1.0,1.0, 1.0
413,0.0228,0.132,3.45,0.132,3.45,-0.31981067767321725,0.0,0.9474814670726797,0.0,1.0,-0.0,1.0,1.0,1.0, 1.0
414,0.0228,0.132,3.45,0.132,3.45,-0.3249714891054307,0.0,0.9457238134194352,0.0,1.0,-0.0,1.0,1.0,1.0, 1.0
415,0.0228,0.132,3.45,0.132,3.45,-0.33265574926547603,0.0,0.943048329875317,0.0,1.0,-0.0,1.0,1.0,1.0, 1.0
416,0.0228,0.132,3.45,0.132,3.45,-0.3441940954510255,0.0,0.9388985166974385,0.0,1.0,-0.0,1.0,1.0,1.0, 1.0
417,0.0228,0.132,3.45,0.132,3.45,-0.2661866878536883,0.0,0.9639214943186417,0.0,1.0,-0.0,1.0,1.0,1.0, 1.0
418,0.0228,0.132,3.45,0.132,3.45,-0.2651812638330894,0.0,0.9641985777379499,0.0,1.0,-0.0,1.0,1.0,1.0, 1.0
419,0.0228,0.132,3.45,0.132,3.45,-0.26428952958356844,0.0,0.9644433858721287,0.0,1.0,-0.0,1.0,1.0,1.0, 1.0
420,0.0228,0.132,3.45,0.132,3.45,-0.26355522951125376,0.0,0.9646443080209774,0.0,1.0,-0.0,1.0,1.0,1.0, 1.0
421,0.0228,0.132,3.45,0.132,3.45,-0.2630047473068041,0.0,0.9647945392124087,0.0,1.0,-0.0,1.0,1.0,1.0, 1.0
422,0.0228,0.132,3.45,0.132,3.45,-0.2626598992022924,0.0,0.9648884792301345,0.0,1.0,-0.0,1.0,1.0,1.0, 1.0
423,0.0228,0.132,3.45,0.132,3.45,-0.2625514654265201,0.0,0.9649179902988579,0.0,1.0,-0.0,1.0,1.0,1.0, 1.0
424,0.0228,0.132,3.45,0.132,3.45,-0.262725053458082,0.0,0.9648707407137227,0.0,1.0,-0.0,1.0,1.0,1.0, 1.0
425,0.0228,0.132,3.45,0.132,3.45,-0.2632479600524603,0.0,0.9647282060395137,0.0,1.0,-0.0,1.0,1.0,1.0, 1.0
426,0.0228,0.132,3.45,0.132,3.45,-0.2642116531879062,0.0,0.9644647232116443,0.0,1.0,-0.0,1.0,1.0,1.0, 1.0
427,0.0228,0.132,3.45,0.132,3.45,-0.265732939152911,0.0,0.9640466819864872,0.0,1.0,-0.0,1.0,1.0,1.0, 1.0
428,0.0228,0.132,3.45,0.132,3.45,-0.26797967877449147,0.0,0.9634245646463039,0.0,1.0,-0.0,1.0,1.0,1.0, 1.0
429,0.0228,0.132,3.45,0.132,3.45,-0.2712127581356776,0.0,0.9625194230894452,0.0,1.0,-0.0,1.0,1.0,1.0, 1.0
430,0.0228,0.132,3.45,0.132,3.45,-0.275899979600789,0.0,0.9611863509519287,0.0,1.0,-0.0,1.0,1.0,1.0, 1.0
431,0.0228,0.132,3.45,0.132,3.45,-0.28287735227108224,0.0,0.9591560892639436,0.0,1.0,-0.0,1.0,1.0,1.0, 1.0
432,0.0228,0.132,3.45,0.132,3.45,-0.2933484873097363,0.0,0.9560055779089836,0.0,1.0,-0.0,1.0,1.0,1.0, 1.0
433,0.0228,0.132,3.45,0.132,3.45,-0.21857699278124962,0.0,0.9758197057995425,0.0,1.0,-0.0,1.0,1.0,1.0, 1.0
434,0.0228,0.132,3.45,0.132,3.45,-0.21756867208191896,0.0,0.9760450158309864,0.0,1.0,-0.0,1.0,1.0,1.0, 1.0
435,0.0228,0.132,3.45,0.132,3.45,-0.21666909131500436,0.0,0.976245104914094,0.0,1.0,-0.0,1.0,1.0,1.0, 1.0
436,0.0228,0.132,3.45,0.132,3.45,-0.2159176213666615,0.0,0.9764115836999082,0.0,1.0,-0.0,1.0,1.0,1.0, 1.0
437,0.0228,0.132,3.45,0.132,3.45,-0.21533819809848334,0.0,0.9765395334750654,0.0,1.0,-0.0,1.0,1.0,1.0, 1.0
438,0.0228,0.132,3.45,0.132,3.45,-0.21494575027821072,0.0,0.9766259900480517,0.0,1.0,-0.0,1.0,1.0,1.0, 1.0
439,0.0228,0.132,3.45,0.132,3.45,-0.21476752247556122,0.0,0.976665199180205,0.0,1.0,-0.0,1.0,1.0,1.0, 1.0
440,0.0228,0.132,3.45,0.132,3.45,-0.2148474980145492,0.0,0.9766476092208941,0.0,1.0,-0.0,1.0,1.0,1.0, 1.0
441,0.0228,0.132,3.45,0.132,3.45,-0.2152441874893502,0.0,0.9765602591504783,0.0,1.0,-0.0,1.0,1.0,1.0, 1.0
442,0.0228,0.132,3.45,0.132,3.45,-0.21603668900996972,0.0,0.9763852462023428,0.0,1.0,-0.0,1.0,1.0,1.0, 1.0
443,0.0228,0.132,3.45,0.132,3.45,-0.21732746191457733,0.0,0.9760987523287631,0.0,1.0,-0.0,1.0,1.0,1.0, 1.0
444,0.0228,0.132,3.45,0.132,3.45,-0.21926346848171896,0.0,0.9756656862826356,0.0,1.0,-0.0,1.0,1.0,1.0, 1.0
445,0.0228,0.132,3.45,0.132,3.45,-0.2220690061580077,0.0,0.975030951562049,0.0,1.0,-0.0,1.0,1.0,1.0, 1.0
446,0.0228,0.132,3.45,0.132,3.45,-0.2261458517238073,0.0,0.974093452266318,0.0,1.0,-0.0,1.0,1.0,1.0, 1.0
447,0.0228,0.132,3.45,0.132,3.45,-0.23221356234574828,0.0,0.9726648248305773,0.0,1.0,-0.0,1.0,1.0,1.0, 1.0
448,0.0228,0.132,3.45,0.132,3.45,-0.24131718196489085,0.0,0.9704462981991965,0.0,1.0,-0.0,1.0,1.0,1.0, 1.0
449,0.0228,0.132,3.45,0.132,3.45,-0.1704693255989992,0.0,0.9853629833872503,0.0,1.0,-0.0,1.0,1.0,1.0, 1.0
450,0.0228,0.132,3.45,0.132,3.45,-0.16952696053602295,0.0,0.9855255499739303,0.0,1.0,-0.0,1.0,1.0,1.0, 1.0
451,0.0228,0.132,3.45,0.132,3.45,-0.16868672646622293,0.0,0.9856697156320213,0.0,1.0,-0.0,1.0,1.0,1.0, 1.0
452,0.0228,0.132,3.45,0.132,3.45,-0.16797995055936915,0.0,0.9857904119081663,0.0,1.0,-0.0,1.0,1.0,1.0, 1.0
453,0.0228,0.132,3.45,0.132,3.45,-0.167422614037658,0.0,0.98588522065644,0.0,1.0,-0.0,1.0,1.0,1.0, 1.0
454,0.0228,0.132,3.45,0.132,3.45,-0.16702861575755923,0.0,0.9859520482853684,0.0,1.0,-0.0,1.0,1.0,1.0, 1.0
455,0.0228,0.132,3.45,0.132,3.45,-0.16681977864879827,0.0,0.9859874043067518,0.0,1.0,-0.0,1.0,1.0,1.0, 1.0
456,0.0228,0.132,3.45,0.132,3.45,-0.1668287170097582,0.0,0.9859858919786215,0.0,1.0,-0.0,1.0,1.0,1.0, 1.0
457,0.0228,0.132,3.45,0.132,3.45,-0.16710493512203134,0.0,0.985939116100919,0.0,1.0,-0.0,1.0,1.0,1.0, 1.0
458,0.0228,0.132,3.45,0.132,3.45,-0.16771648899776717,0.0,0.985835269869293,0.0,1.0,-0.0,1.0,1.0,1.0, 1.0
459,0.0228,0.132,3.45,0.132,3.45,-0.1687501492062448,0.0,0.9856588594147928,0.0,1.0,-0.0,1.0,1.0,1.0, 1.0
460,0.0228,0.132,3.45,0.132,3.45,-0.17032472920065472,0.0,0.9853879878620013,0.0,1.0,-0.0,1.0,1.0,1.0, 1.0
461,0.0228,0.132,3.45,0.132,3.45,-0.17262244053771827,0.0,0.984988067451988,0.0,1.0,-0.0,1.0,1.0,1.0, 1.0
462,0.0228,0.132,3.45,0.132,3.45,-0.17596833057636893,0.0,0.9843958282287495,0.0,1.0,-0.0,1.0,1.0,1.0, 1.0
463,0.0228,0.132,3.45,0.132,3.45,-0.18094484551712012,0.0,0.9834932449594076,0.0,1.0,-0.0,1.0,1.0,1.0, 1.0
464,0.0228,0.132,3.45,0.132,3.45,-0.18840455055333125,0.0,0.9820915055791886,0.0,1.0,-0.0,1.0,1.0,1.0, 1.0
465,0.0228,0.132,3.45,0.132,3.45,-0.1219878867634135,0.0,0.9925315891612704,0.0,1.0,-0.0,1.0,1.0,1.0, 1.0
466,0.0228,0.132,3.45,0.132,3.45,-0.12118651444880874,0.0,0.992629754095528,0.0,1.0,-0.0,1.0,1.0,1.0, 1.0
467,0.0228,0.132,3.45,0.132,3.45,-0.12047779092532232,0.0,0.9927160227848417,0.0,1.0,-0.0,1.0,1.0,1.0, 1.0
468,0.0228,0.132,3.45,0.132,3.45,-0.11988392226709285,0.0,0.9927879155095803,0.0,1.0,-0.0,1.0,1.0,1.0, 1.0
469,0.0228,0.132,3.45,0.132,3.45,-0.11941239038209807,0.0,0.9928447416505933,0.0,1.0,-0.0,1.0,1.0,1.0, 1.0
470,0.0228,0.132,3.45,0.132,3.45,-0.11907001376710759,0.0,0.9928858604197669,0.0,1.0,-0.0,1.0,1.0,1.0, 1.0
471,0.0228,0.132,3.45,0.132,3.45,-0.11887066632839838,0.0,0.9929097464959454,0.0,1.0,-0.0,1.0,1.0,1.0, 1.0
472,0.0228,0.132,3.45,0.132,3.45,-0.11883633710507224,0.0,0.9929138557717127,0.0,1.0,-0.0,1.0,1.0,1.0, 1.0
473,0.0228,0.132,3.45,0.132,3.45,-0.11900709672502469,0.0,0.9928934036084037,0.0,1.0,-0.0,1.0,1.0,1.0, 1.0
474,0.0228,0.132,3.45,0.132,3.45,-0.11943813228755142,0.0,0.9928416452565139,0.0,1.0,-0.0,1.0,1.0,1.0, 1.0
475,0.0228,0.132,3.45,0.132,3.45,-0.12019498519867121,0.0,0.9927503037184583,0.0,1.0,-0.0,1.0,1.0,1.0, 1.0
476,0.0228,0.132,3.45,0.132,3.45,-0.1213678284631492,0.0,0.992607601328007,0.0,1.0,-0.0,1.0,1.0,1.0, 1.0
477,0.0228,0.132,3.45,0.132,3.45,-0.12308984160362776,0.0,0.9923955314762325,0.0,1.0,-0.0,1.0,1.0,1.0, 1.0
478,0.0228,0.132,3.45,0.132,3.45,-0.12559877407669603,0.0,0.9920811196421545,0.0,1.0,-0.0,1.0,1.0,1.0, 1.0
479,0.0228,0.132,3.45,0.132,3.45,-0.1293233747358398,0.0,0.9916024731448251,0.0,1.0,-0.0,1.0,1.0,1.0, 1.0
480,0.0228,0.132,3.45,0.132,3.45,-0.13489132141376772,0.0,0.990860399555481,0.0,1.0,-0.0,1.0,1.0,1.0, 1.0
481,0.0228,0.132,3.45,0.132,3.45,-0.0732535620017336,0.0,0.9973133487796391,0.0,1.0,-0.0,1.0,1.0,1.0, 1.0
482,0.0228,0.132,3.45,0.132,3.45,-0.07267553526921122,0.0,0.9973556369587198,0.0,1.0,-0.0,1.0,1.0,1.0, 1.0
483,0.0228,0.132,3.45,0.132,3.45,-0.07218059270116044,0.0,0.9973915790888297,0.0,1.0,-0.0,1.0,1.0,1.0, 1.0
484,0.0228,0.132,3.45,0.132,3.45,-0.07177359519836456,0.0,0.9974209497660961,0.0,1.0,-0.0,1.0,1.0,1.0, 1.0
485,0.0228,0.132,3.45,0.132,3.45,-0.07145216761704377,0.0,0.9974440273733789,0.0,1.0,-0.0,1.0,1.0,1.0, 1.0
486,0.0228,0.132,3.45,0.132,3.45,-0.07121444993267921,0.0,0.9974610278706562,0.0,1.0,-0.0,1.0,1.0,1.0, 1.0
487,0.0228,0.132,3.45,0.132,3.45,-0.07106616007346961,0.0,0.9974716040531739,0.0,1.0,-0.0,1.0,1.0,1.0, 1.0
488,0.0228,0.132,3.45,0.132,3.45,-0.07102085121736583,0.0,0.9974748311072119,0.0,1.0,-0.0,1.0,1.0,1.0, 1.0
489,0.0228,0.132,3.45,0.132,3.45,-0.07110551962242385,0.0,0.9974687990504891,0.0,1.0,-0.0,1.0,1.0,1.0, 1.0
490,0.0228,0.132,3.45,0.132,3.45,-0.07135771638414222,0.0,0.997450788917649,0.0,1.0,-0.0,1.0,1.0,1.0, 1.0
491,0.0228,0.132,3.45,0.132,3.45,-0.07182169270859386,0.0,0.9974174875429407,0.0,1.0,-0.0,1.0,1.0,1.0, 1.0
492,0.0228,0.132,3.45,0.132,3.45,-0.0725562855023964,0.0,0.9973643193106995,0.0,1.0,-0.0,1.0,1.0,1.0, 1.0
493,0.0228,0.132,3.45,0.132,3.45,-0.07364209119772686,0.0,0.9972847348696489,0.0,1.0,-0.0,1.0,1.0,1.0, 1.0
494,0.0228,0.132,3.45,0.132,3.45,-0.0752212523356884,0.0,0.9971668682808563,0.0,1.0,-0.0,1.0,1.0,1.0, 1.0
495,0.0228,0.132,3.45,0.132,3.45,-0.0775519228346463,0.0,0.9969883145075719,0.0,1.0,-0.0,1.0,1.0,1.0, 1.0
496,0.0228,0.132,3.45,0.132,3.45,-0.0810180762439465,0.0,0.9967126322675608,0.0,1.0,-0.0,1.0,1.0,1.0, 1.0
497,0.0228,0.132,3.45,0.132,3.45,-0.024405876729528334,0.0,0.9997021322279267,0.0,1.0,-0.0,1.0,1.0,1.0, 1.0
498,0.0228,0.132,3.45,0.132,3.45,-0.024165900568192983,0.0,0.9997079619817621,0.0,1.0,-0.0,1.0,1.0,1.0, 1.0
499,0.0228,0.132,3.45,0.132,3.45,-0.02397659006267686,0.0,0.9997125202421776,0.0,1.0,-0.0,1.0,1.0,1.0, 1.0
500,0.0228,0.132,3.45,0.132,3.45,-0.023826614248878573,0.0,0.9997161059287958,0.0,1.0,-0.0,1.0,1.0,1.0, 1.0
501,0.0228,0.132,3.45,0.132,3.45,-0.023709194472259987,0.0,0.9997188975394417,0.0,1.0,-0.0,1.0,1.0,1.0, 1.0
502,0.0228,0.132,3.45,0.132,3.45,-0.02362177832529767,0.0,0.9997209668646299,0.0,1.0,-0.0,1.0,1.0,1.0, 1.0
503,0.0228,0.132,3.45,0.132,3.45,-0.023564604041462628,0.0,0.9997223161640282,0.0,1.0,-0.0,1.0,1.0,1.0, 1.0
504,0.0228,0.132,3.45,0.132,3.45,-0.023540728667708368,0.0,0.9997228786487751,0.0,1.0,-0.0,1.0,1.0,1.0, 1.0
505,0.0228,0.132,3.45,0.132,3.45,-0.02355995387197116,0.0,0.9997224257630468,0.0,1.0,-0.0,1.0,1.0,1.0, 1.0
506,0.0228,0.132,3.45,0.132,3.45,-0.023638603783921033,0.0,0.9997205691647775,0.0,1.0,-0.0,1.0,1.0,1.0, 1.0
507,0.0228,0.132,3.45,0.132,3.45,-0.02379572431720131,0.0,0.999716841662788,0.0,1.0,-0.0,1.0,1.0,1.0, 1.0
508,0.0228,0.132,3.45,0.132,3.45,-0.024052699789567335,0.0,0.9997106919668475,0.0,1.0,-0.0,1.0,1.0,1.0, 1.0
509,0.0228,0.132,3.45,0.132,3.45,-0.024435755621730608,0.0,0.9997014023433172,0.0,1.0,-0.0,1.0,1.0,1.0, 1.0
510,0.0228,0.132,3.45,0.132,3.45,-0.02498951044518063,0.0,0.9996877134224018,0.0,1.0,-0.0,1.0,1.0,1.0, 1.0
511,0.0228,0.132,3.45,0.132,3.45,-0.02579836116380266,0.0,0.999667166891692,0.0,1.0,-0.0,1.0,1.0,1.0, 1.0
512,0.0228,0.132,3.45,0.132,3.45,-0.02699032944727606,0.0,0.9996356946989876,0.0,1.0,-0.0,1.0,1.0,1.0, 1.0
513,0.0228,0.132,3.45,0.132,3.45,-0.689533003304434,0.0,0.7242542629173592,0.0,1.0,-0.0,1.0,1.0,1.0, 1.0
514,0.0228,0.132,3.45,0.132,3.45,-0.689517561046697,0.0,0.7242689645485402,0.0,1.0,-0.0,1.0,1.0,1.0, 1.0
515,0.0228,0.132,3.45,0.132,3.45,-0.689511530243077,0.0,0.7242747059381892,0.0,1.0,-0.0,1.0,1.0,1.0, 1.0
516,0.0228,0.132,3.45,0.132,3.45,-0.689521407726477,0.0,0.72426530241818,0.0,1.0,-0.0,1.0,1.0,1.0, 1.0
517,0.0228,0.132,3.45,0.132,3.45,-0.6895426717195281,0.0,0.7242450578898659,0.0,1.0,-0.0,1.0,1.0,1.0, 1.0
518,0.0228,0.132,3.45,0.132,3.45,-0.6895792975403358,0.0,0.7242101852389105,0.0,1.0,-0.0,1.0,1.0,1.0, 1.0
519,0.0228,0.132,3.45,0.132,3.45,-0.6896451591903817,0.0,0.7241474673057091,0.0,1.0,-0.0,1.0,1.0,1.0, 1.0
520,0.0228,0.132,3.45,0.132,3.45,-0.6897386290564264,0.0,0.7240584393454451,0.0,1.0,-0.0,1.0,1.0,1.0, 1.0
521,0.0228,0.132,3.45,0.132,3.45,-0.6898689271255214,0.0,0.7239342949375185,0.0,1.0,-0.0,1.0,1.0,1.0, 1.0
522,0.0228,0.132,3.45,0.132,3.45,-0.6900511711814947,0.0,0.7237605827558224,0.0,1.0,-0.0,1.0,1.0,1.0, 1.0
523,0.0228,0.132,3.45,0.132,3.45,-0.6903001759398794,0.0,0.7235230936862843,0.0,1.0,-0.0,1.0,1.0,1.0, 1.0
524,0.0228,0.132,3.45,0.132,3.45,-0.6906615502826339,0.0,0.7231781405443535,0.0,1.0,-0.0,1.0,1.0,1.0, 1.0
525,0.0228,0.132,3.45,0.132,3.45,-0.6912187567890961,0.0,0.7226455772112194,0.0,1.0,-0.0,1.0,1.0,1.0, 1.0
526,0.0228,0.132,3.45,0.132,3.45,-0.6921395110103965,0.0,0.7217637406369823,0.0,1.0,-0.0,1.0,1.0,1.0, 1.0
527,0.0228,0.132,3.45,0.132,3.45,-0.6937766100375162,0.0,0.7201902633088372,0.0,1.0,-0.0,1.0,1.0,1.0, 1.0
528,0.0228,0.132,3.45,0.132,3.45,-0.6968522418562517,0.0,0.7172147189091397,0.0,1.0,-0.0,1.0,1.0,1.0, 1.0
529,0.0228,0.132,3.45,0.132,3.45,-0.6531452926050872,0.0,0.757232610726595,0.0,1.0,-0.0,1.0,1.0,1.0, 1.0
530,0.0228,0.132,3.45,0.132,3.45,-0.6530874334461434,0.0,0.7572825128541719,0.0,1.0,-0.0,1.0,1.0,1.0, 1.0
531,0.0228,0.132,3.45,0.132,3.45,-0.6530641746114877,0.0,0.7573025708651836,0.0,1.0,-0.0,1.0,1.0,1.0, 1.0
532,0.0228,0.132,3.45,0.132,3.45,-0.6530902922166038,0.0,0.7572800474147138,0.0,1.0,-0.0,1.0,1.0,1.0, 1.0
533,0.0228,0.132,3.45,0.132,3.45,-0.6531503140676488,0.0,0.7572282794727967,0.0,1.0,-0.0,1.0,1.0,1.0, 1.0
534,0.0228,0.132,3.45,0.132,3.45,-0.6532605826749607,0.0,0.7571331528358608,0.0,1.0,-0.0,1.0,1.0,1.0, 1.0
535,0.0228,0.132,3.45,0.132,3.45,-0.6534499433709665,0.0,0.7569697295853255,0.0,1.0,-0.0,1.0,1.0,1.0, 1.0
536,0.0228,0.132,3.45,0.132,3.45,-0.6537265629364648,0.0,0.7567308510370622,0.0,1.0,-0.0,1.0,1.0,1.0, 1.0
537,0.0228,0.132,3.45,0.132,3.45,-0.6541143412255387,0.0,0.756395682565071,0.0,1.0,-0.0,1.0,1.0,1.0, 1.0
538,0.0228,0.132,3.45,0.132,3.45,-0.6546539640665953,0.0,0.7559286919623391,0.0,1.0,-0.0,1.0,1.0,1.0, 1.0
539,0.0228,0.132,3.45,0.132,3.45,-0.6554112300752057,0.0,0.7552722154900879,0.0,1.0,-0.0,1.0,1.0,1.0, 1.0
540,0.0228,0.132,3.45,0.132,3.45,-0.6565018790094495,0.0,0.7543243883483167,0.0,1.0,-0.0,1.0,1.0,1.0, 1.0
541,0.0228,0.132,3.45,0.132,3.45,-0.6581419519448118,0.0,0.7528938644259714,0.0,1.0,-0.0,1.0,1.0,1.0, 1.0
542,0.0228,0.132,3.45,0.132,3.45,-0.66077496553132,0.0,0.750584069193507,0.0,1.0,-0.0,1.0,1.0,1.0, 1.0
543,0.0228,0.132,3.45,0.132,3.45,-0.6652528472360534,0.0,0.7466181415183563,0.0,1.0,-0.0,1.0,1.0,1.0, 1.0
544,0.0228,0.132,3.45,0.132,3.45,-0.6730620554020255,0.0,0.7395860122920125,0.0,1.0,-0.0,1.0,1.0,1.0, 1.0
545,0.0228,0.132,3.45,0.132,3.45,-0.6151733928060884,0.0,0.7883918421593705,0.0,1.0,-0.0,1.0,1.0,1.0, 1.0
546,0.0228,0.132,3.45,0.132,3.45,-0.6150592777106538,0.0,0.7884808716145553,0.0,1.0,-0.0,1.0,1.0,1.0, 1.0
547,0.0228,0.132,3.45,0.132,3.45,-0.6149990119241374,0.0,0.7885278786018506,0.0,1.0,-0.0,1.0,1.0,1.0, 1.0
548,0.0228,0.132,3.45,0.132,3.45,-0.6150144694363827,0.0,0.7885158225323602,0.0,1.0,-0.0,1.0,1.0,1.0, 1.0
549,0.0228,0.132,3.45,0.132,3.45,-0.6150923221158471,0.0,0.7884550940124204,0.0,1.0,-0.0,1.0,1.0,1.0, 1.0
550,0.0228,0.132,3.45,0.132,3.45,-0.6152611819345267,0.0,0.7883233334137264,0.0,1.0,-0.0,1.0,1.0,1.0, 1.0
551,0.0228,0.132,3.45,0.132,3.45,-0.6155502259131308,0.0,0.7880976585286202,0.0,1.0,-0.0,1.0,1.0,1.0, 1.0
552,0.0228,0.132,3.45,0.132,3.45,-0.6159814695976741,0.0,0.7877606420177956,0.0,1.0,-0.0,1.0,1.0,1.0, 1.0
553,0.0228,0.132,3.45,0.132,3.45,-0.6166018825579163,0.0,0.7872751224483305,0.0,1.0,-0.0,1.0,1.0,1.0, 1.0
554,0.0228,0.132,3.45,0.132,3.45,-0.6174742163315862,0.0,0.7865911213366786,0.0,1.0,-0.0,1.0,1.0,1.0, 1.0
555,0.0228,0.132,3.45,0.132,3.45,-0.6187016173290747,0.0,0.7856260616313511,0.0,1.0,-0.0,1.0,1.0,1.0, 1.0
556,0.0228,0.132,3.45,0.132,3.45,-0.6204451279229619,0.0,0.7842498602082499,0.0,1.0,-0.0,1.0,1.0,1.0, 1.0
557,0.0228,0.132,3.45,0.132,3.45,-0.6230134763025436,0.0,0.7822111021619547,0.0,1.0,-0.0,1.0,1.0,1.0, 1.0
558,0.0228,0.132,3.45,0.132,3.45,-0.6269955755442151,0.0,0.7790228162563521,0.0,1.0,-0.0,1.0,1.0,1.0, 1.0
559,0.0228,0.132,3.45,0.132,3.45,-0.6334160262471745,0.0,0.7738114354888008,0.0,1.0,-0.0,1.0,1.0,1.0, 1.0
560,0.0228,0.132,3.45,0.132,3.45,-0.6437550333495484,0.0,0.765231636197251,0.0,1.0,-0.0,1.0,1.0,1.0, 1.0
561,0.0228,0.132,3.45,0.132,3.45,-0.5757059493226518,0.0,0.8176568105962944,0.0,1.0,-0.0,1.0,1.0,1.0, 1.0
562,0.0228,0.132,3.45,0.132,3.45,-0.5755140966345055,0.0,0.8177918589561584,0.0,1.0,-0.0,1.0,1.0,1.0, 1.0
563,0.0228,0.132,3.45,0.132,3.45,-0.5753875793818108,0.0,0.8178808797698723,0.0,1.0,-0.0,1.0,1.0,1.0, 1.0
564,0.0228,0.132,3.45,0.132,3.45,-0.5753537984644529,0.0,0.8179046439485019,0.0,1.0,-0.0,1.0,1.0,1.0, 1.0
565,0.0228,0.132,3.45,0.132,3.45,-0.5754192237889733,0.0,0.8178586166900091,0.0,1.0,-0.0,1.0,1.0,1.0, 1.0
566,0.0228,0.132,3.45,0.132,3.45,-0.575616449547716,0.0,0.8177198193819701,0.0,1.0,-0.0,1.0,1.0,1.0, 1.0
567,0.0228,0.132,3.45,0.132,3.45,-0.5759665030698843,0.0,0.8174732945738651,0.0,1.0,-0.0,1.0,1.0,1.0, 1.0
568,0.0228,0.132,3.45,0.132,3.45,-0.5765155839680481,0.0,0.8170861530107951,0.0,1.0,-0.0,1.0,1.0,1.0, 1.0
569,0.0228,0.132,3.45,0.132,3.45,-0.5773222206797334,0.0,0.8165164134966434,0.0,1.0,-0.0,1.0,1.0,1.0, 1.0
570,0.0228,0.132,3.45,0.132,3.45,-0.5784687147726826,0.0,0.8157045703128313,0.0,1.0,-0.0,1.0,1.0,1.0, 1.0
571,0.0228,0.132,3.45,0.132,3.45,-0.5800815730809838,0.0,0.8145583886818005,0.0,1.0,-0.0,1.0,1.0,1.0, 1.0
572,0.0228,0.132,3.45,0.132,3.45,-0.5823549188866671,0.0,0.812934652016079,0.0,1.0,-0.0,1.0,1.0,1.0, 1.0
573,0.0228,0.132,3.45,0.132,3.45,-0.5856516650707135,0.0,0.8105628459286182,0.0,1.0,-0.0,1.0,1.0,1.0, 1.0
574,0.0228,0.132,3.45,0.132,3.45,-0.5906043123024538,0.0,0.806961304084493,0.0,1.0,-0.0,1.0,1.0,1.0, 1.0
575,0.0228,0.132,3.45,0.132,3.45,-0.5982826745920413,0.0,0.8012851185957429,0.0,1.0,-0.0,1.0,1.0,1.0, 1.0
576,0.0228,0.132,3.45,0.132,3.45,-0.6100898458213945,0.0,0.7923322409353459,0.0,1.0,-0.0,1.0,1.0,1.0, 1.0
577,0.0228,0.132,3.45,0.132,3.45,-0.534840439708861,0.0,0.8449530780179644,0.0,1.0,-0.0,1.0,1.0,1.0, 1.0
578,0.0228,0.132,3.45,0.132,3.45,-0.5345403524851061,0.0,0.8451429533310316,0.0,1.0,-0.0,1.0,1.0,1.0, 1.0
579,0.0228,0.132,3.45,0.132,3.45,-0.53431790940612,0.0,0.845283604293774,0.0,1.0,-0.0,1.0,1.0,1.0, 1.0
580,0.0228,0.132,3.45,0.132,3.45,-0.5342034168841359,0.0,0.8453559660813391,0.0,1.0,-0.0,1.0,1.0,1.0, 1.0
581,0.0228,0.132,3.45,0.132,3.45,-0.5342209463360741,0.0,0.8453448884897747,0.0,1.0,-0.0,1.0,1.0,1.0, 1.0
582,0.0228,0.132,3.45,0.132,3.45,-0.5344056539382884,0.0,0.8452281331325823,0.0,1.0,-0.0,1.0,1.0,1.0, 1.0
583,0.0228,0.132,3.45,0.132,3.45,-0.5347748444870065,0.0,0.8449945950737782,0.0,1.0,-0.0,1.0,1.0,1.0, 1.0
584,0.0228,0.132,3.45,0.132,3.45,-0.5353934312719638,0.0,0.8446027905180239,0.0,1.0,-0.0,1.0,1.0,1.0, 1.0
585,0.0228,0.132,3.45,0.132,3.45,-0.5363270992572576,0.0,0.8440102147499732,0.0,1.0,-0.0,1.0,1.0,1.0, 1.0
586,0.0228,0.132,3.45,0.132,3.45,-0.5376707057290708,0.0,0.8431549158967189,0.0,1.0,-0.0,1.0,1.0,1.0, 1.0
587,0.0228,0.132,3.45,0.132,3.45,-0.5395696855807175,0.0,0.8419409447237531,0.0,1.0,-0.0,1.0,1.0,1.0, 1.0
588,0.0228,0.132,3.45,0.132,3.45,-0.542241185953605,0.0,0.8402228848678356,0.0,1.0,-0.0,1.0,1.0,1.0, 1.0
589,0.0228,0.132,3.45,0.132,3.45,-0.5460602166925016,0.0,0.8377459279195203,0.0,1.0,-0.0,1.0,1.0,1.0, 1.0
590,0.0228,0.132,3.45,0.132,3.45,-0.5516690500296928,0.0,0.8340631026722957,0.0,1.0,-0.0,1.0,1.0,1.0, 1.0
591,0.0228,0.132,3.45,0.132,3.45,-0.560144664286788,0.0,0.8283948062796154,0.0,1.0,-0.0,1.0,1.0,1.0, 1.0
592,0.0228,0.132,3.45,0.132,3.45,-0.5728316206286803,0.0,0.8196730655620689,0.0,1.0,-0.0,1.0,1.0,1.0, 1.0
593,0.0228,0.132,3.45,0.132,3.45,-0.4926724339354933,0.0,0.8702148429210323,0.0,1.0,-0.0,1.0,1.0,1.0, 1.0
594,0.0228,0.132,3.45,0.132,3.45,-0.4922425159263724,0.0,0.8704581009528689,0.0,1.0,-0.0,1.0,1.0,1.0, 1.0
595,0.0228,0.132,3.45,0.132,3.45,-0.49189618915371924,0.0,0.870653857222288,0.0,1.0,-0.0,1.0,1.0,1.0, 1.0
596,0.0228,0.132,3.45,0.132,3.45,-0.491677675905279,0.0,0.8707772752066876,0.0,1.0,-0.0,1.0,1.0,1.0, 1.0
597,0.0228,0.132,3.45,0.132,3.45,-0.49161396333742435,0.0,0.8708132469431488,0.0,1.0,-0.0,1.0,1.0,1.0, 1.0
598,0.0228,0.132,3.45,0.132,3.45,-0.4917465209664505,0.0,0.8707383987842687,0.0,1.0,-0.0,1.0,1.0,1.0, 1.0
599,0.0228,0.132,3.45,0.132,3.45,-0.49209675496060057,0.0,0.8705405124158476,0.0,1.0,-0.0,1.0,1.0,1.0, 1.0
600,0.0228,0.132,3.45,0.132,3.45,-0.4927286797163487,0.0,0.870182996952356,0.0,1.0,-0.0,1.0,1.0,1.0, 1.0
601,0.0228,0.132,3.45,0.132,3.45,-0.49373033295008506,0.0,0.8696150633038725,0.0,1.0,-0.0,1.0,1.0,1.0, 1.0
602,0.0228,0.132,3.45,0.132,3.45,-0.49519550331843254,0.0,0.8687815683433923,0.0,1.0,-0.0,1.0,1.0,1.0, 1.0
603,0.0228,0.132,3.45,0.132,3.45,-0.49728473732496403,0.0,0.8675873961876357,0.0,1.0,-0.0,1.0,1.0,1.0, 1.0
604,0.0228,0.132,3.45,0.132,3.45,-0.5002216259999795,0.0,0.8658974101369842,0.0,1.0,-0.0,1.0,1.0,1.0, 1.0
605,0.0228,0.132,3.45,0.132,3.45,-0.5043725869887696,0.0,0.8634861281423437,0.0,1.0,-0.0,1.0,1.0,1.0, 1.0
606,0.0228,0.132,3.45,0.132,3.45,-0.510392598807122,0.0,0.8599415067799159,0.0,1.0,-0.0,1.0,1.0,1.0, 1.0
607,0.0228,0.132,3.45,0.132,3.45,-0.5193304939326157,0.0,0.8545734831316177,0.0,1.0,-0.0,1.0,1.0,1.0, 1.0
608,0.0228,0.132,3.45,0.132,3.45,-0.5324969469240388,0.0,0.8464319237343174,0.0,1.0,-0.0,1.0,1.0,1.0, 1.0
609,0.0228,0.132,3.45,0.132,3.45,-0.44930370617926835,0.0,0.8933790794581958,0.0,1.0,-0.0,1.0,1.0,1.0, 1.0
610,0.0228,0.132,3.45,0.132,3.45,-0.44872686292050373,0.0,0.8936689557624364,0.0,1.0,-0.0,1.0,1.0,1.0, 1.0
611,0.0228,0.132,3.45,0.132,3.45,-0.44824746582257197,0.0,0.8939095084982831,0.0,1.0,-0.0,1.0,1.0,1.0, 1.0
612,0.0228,0.132,3.45,0.132,3.45,-0.447913126987567,0.0,0.8940770831825517,0.0,1.0,-0.0,1.0,1.0,1.0, 1.0
613,0.0228,0.132,3.45,0.132,3.45,-0.447748448350322,0.0,0.8941595646191338,0.0,1.0,-0.0,1.0,1.0,1.0, 1.0
614,0.0228,0.132,3.45,0.132,3.45,-0.4477913857380217,0.0,0.8941380625266002,0.0,1.0,-0.0,1.0,1.0,1.0, 1.0
615,0.0228,0.132,3.45,0.132,3.45,-0.4480841164116307,0.0,0.893991400752607,0.0,1.0,-0.0,1.0,1.0,1.0, 1.0
616,0.0228,0.132,3.45,0.132,3.45,-0.4486887318421016,0.0,0.8936881010273812,0.0,1.0,-0.0,1.0,1.0,1.0, 1.0
617,0.0228,0.132,3.45,0.132,3.45,-0.44969282476776345,0.0,0.8931832753429665,0.0,1.0,-0.0,1.0,1.0,1.0, 1.0
618,0.0228,0.132,3.45,0.132,3.45,-0.45120585910454386,0.0,0.8924198970830549,0.0,1.0,-0.0,1.0,1.0,1.0, 1.0
619,0.0228,0.132,3.45,0.132,3.45,-0.4533919813283083,0.0,0.8913112314265937,0.0,1.0,-0.0,1.0,1.0,1.0, 1.0
620,0.0228,0.132,3.45,0.132,3.45,-0.45646796940250267,0.0,0.8897398456344168,0.0,1.0,-0.0,1.0,1.0,1.0, 1.0
621,0.0228,0.132,3.45,0.132,3.45,-0.4607978011885801,0.0,0.8875051472638171,0.0,1.0,-0.0,1.0,1.0,1.0, 1.0
622,0.0228,0.132,3.45,0.132,3.45,-0.46701666013145254,0.0,0.8842485166284777,0.0,1.0,-0.0,1.0,1.0,1.0, 1.0
623,0.0228,0.132,3.45,0.132,3.45,-0.4761414193397511,0.0,0.8793687217482364,0.0,1.0,-0.0,1.0,1.0,1.0, 1.0
624,0.0228,0.132,3.45,0.132,3.45,-0.48945860995249796,0.0,0.8720265300685344,0.0,1.0,-0.0,1.0,1.0,1.0, 1.0
625,0.0228,0.132,3.45,0.132,3.45,-0.4048560890750586,0.0,0.9143804170797012,0.0,1.0,-0.0,1.0,1.0,1.0, 1.0
626,0.0228,0.132,3.45,0.132,3.45,-0.404130204081994,0.0,0.9147014694142817,0.0,1.0,-0.0,1.0,1.0,1.0, 1.0
627,0.0228,0.132,3.45,0.132,3.45,-0.40351612155510674,0.0,0.9149725349130018,0.0,1.0,-0.0,1.0,1.0,1.0, 1.0
628,0.0228,0.132,3.45,0.132,3.45,-0.4030539539089526,0.0,0.9151762181341689,0.0,1.0,-0.0,1.0,1.0,1.0, 1.0
629,0.0228,0.132,3.45,0.132,3.45,-0.40277736217359095,0.0,0.9152979823644778,0.0,1.0,-0.0,1.0,1.0,1.0, 1.0
630,0.0228,0.132,3.45,0.132,3.45,-0.4027169716413026,0.0,0.9153245548722367,0.0,1.0,-0.0,1.0,1.0,1.0, 1.0
631,0.0228,0.132,3.45,0.132,3.45,-0.4029237414712999,0.0,0.9152335541045078,0.0,1.0,-0.0,1.0,1.0,1.0, 1.0
632,0.0228,0.132,3.45,0.132,3.45,-0.40346453790227027,0.0,0.9149952823131425,0.0,1.0,-0.0,1.0,1.0,1.0, 1.0
633,0.0228,0.132,3.45,0.132,3.45,-0.4044196474394776,0.0,0.9145735338205063,0.0,1.0,-0.0,1.0,1.0,1.0, 1.0
634,0.0228,0.132,3.45,0.132,3.45,-0.40591216537235103,0.0,0.9139120931483121,0.0,1.0,-0.0,1.0,1.0,1.0, 1.0
635,0.0228,0.132,3.45,0.132,3.45,-0.4080999581212038,0.0,0.9129372509551089,0.0,1.0,-0.0,1.0,1.0,1.0, 1.0
636,0.0228,0.132,3.45,0.132,3.45,-0.4111976083367173,0.0,0.9115462286127697,0.0,1.0,-0.0,1.0,1.0,1.0, 1.0
637,0.0228,0.132,3.45,0.132,3.45,-0.4155616296537344,0.0,0.9095650234917416,0.0,1.0,-0.0,1.0,1.0,1.0, 1.0
638,0.0228,0.132,3.45,0.132,3.45,-0.4217871203841346,0.0,0.9066948908414889,0.0,1.0,-0.0,1.0,1.0,1.0, 1.0
639,0.0228,0.132,3.45,0.132,3.45,-0.43085216866867343,0.0,0.9024225222995607,0.0,1.0,-0.0,1.0,1.0,1.0, 1.0
640,0.0228,0.132,3.45,0.132,3.45,-0.4440159842164116,0.0,0.896018864623023,0.0,1.0,-0.0,1.0,1.0,1.0, 1.0
641,0.0228,0.132,3.45,0.132,3.45,-0.3594432323690701,0.0,0.9331669532854636,0.0,1.0,-0.0,1.0,1.0,1.0, 1.0
642,0.0228,0.132,3.45,0.132,3.45,-0.3585850033539046,0.0,0.9334970783937572,0.0,1.0,-0.0,1.0,1.0,1.0, 1.0
643,0.0228,0.132,3.45,0.132,3.45,-0.3578412699460477,0.0,0.9337824294360008,0.0,1.0,-0.0,1.0,1.0,1.0, 1.0
644,0.0228,0.132,3.45,0.132,3.45,-0.3572581688604943,0.0,0.9340056749198296,0.0,1.0,-0.0,1.0,1.0,1.0, 1.0
645,0.0228,0.132,3.45,0.132,3.45,-0.35687035056267014,0.0,0.9341539235528997,0.0,1.0,-0.0,1.0,1.0,1.0, 1.0
646,0.0228,0.132,3.45,0.132,3.45,-0.35670761494121117,0.0,0.9342160764207351,0.0,1.0,-0.0,1.0,1.0,1.0, 1.0
647,0.0228,0.132,3.45,0.132,3.45,-0.35681514363981187,0.0,0.9341750121199455,0.0,1.0,-0.0,1.0,1.0,1.0, 1.0
648,0.0228,0.132,3.45,0.132,3.45,-0.357260408105028,0.0,0.9340048184033253,0.0,1.0,-0.0,1.0,1.0,1.0, 1.0
649,0.0228,0.132,3.45,0.132,3.45,-0.35813066742889155,0.0,0.9336714759737157,0.0,1.0,-0.0,1.0,1.0,1.0, 1.0
650,0.0228,0.132,3.45,0.132,3.45,-0.35954589331257364,0.0,0.9331274031996185,0.0,1.0,-0.0,1.0,1.0,1.0, 1.0
651,0.0228,0.132,3.45,0.132,3.45,-0.3616558056673562,0.0,0.9323116851284743,0.0,1.0,-0.0,1.0,1.0,1.0, 1.0
652,0.0228,0.132,3.45,0.132,3.45,-0.3646674328684113,0.0,0.9311378326569932,0.0,1.0,-0.0,1.0,1.0,1.0, 1.0
653,0.0228,0.132,3.45,0.132,3.45,-0.36891747274148495,0.0,0.9294621553920501,0.0,1.0,-0.0,1.0,1.0,1.0, 1.0
654,0.0228,0.132,3.45,0.132,3.45,-0.37496944326828774,0.0,0.9270371711075399,0.0,1.0,-0.0,1.0,1.0,1.0, 1.0
655,0.0228,0.132,3.45,0.132,3.45,-0.38374287873866075,0.0,0.9234399834409195,0.0,1.0,-0.0,1.0,1.0,1.0, 1.0
656,0.0228,0.132,3.45,0.132,3.45,-0.3964473363561034,0.0,0.91805746524722,0.0,1.0,-0.0,1.0,1.0,1.0, 1.0
657,0.0228,0.132,3.45,0.132,3.45,-0.31317770729691613,0.0,0.9496945422883334,0.0,1.0,-0.0,1.0,1.0,1.0, 1.0
658,0.0228,0.132,3.45,0.132,3.45,-0.31221893840266557,0.0,0.9500101759995587,0.0,1.0,-0.0,1.0,1.0,1.0, 1.0
659,0.0228,0.132,3.45,0.132,3.45,-0.3113778265741892,0.0,0.9502861932691299,0.0,1.0,-0.0,1.0,1.0,1.0, 1.0
660,0.0228,0.132,3.45,0.132,3.45,-0.3106985450514822,0.0,0.950508502909307,0.0,1.0,-0.0,1.0,1.0,1.0, 1.0
661,0.0228,0.132,3.45,0.132,3.45,-0.31021111543717106,0.0,0.9506676937075468,0.0,1.0,-0.0,1.0,1.0,1.0, 1.0
662,0.0228,0.132,3.45,0.132,3.45,-0.3099484704215048,0.0,0.9507533569140681,0.0,1.0,-0.0,1.0,1.0,1.0, 1.0
663,0.0228,0.132,3.45,0.132,3.45,-0.3099557423023207,0.0,0.9507509862281591,0.0,1.0,-0.0,1.0,1.0,1.0, 1.0
664,0.0228,0.132,3.45,0.132,3.45,-0.31029251069845537,0.0,0.9506411298720716,0.0,1.0,-0.0,1.0,1.0,1.0, 1.0
665,0.0228,0.132,3.45,0.132,3.45,-0.3110482406892044,0.0,0.9503941245421031,0.0,1.0,-0.0,1.0,1.0,1.0, 1.0
666,0.0228,0.132,3.45,0.132,3.45,-0.3123375100754874,0.0,0.9499711994580913,0.0,1.0,-0.0,1.0,1.0,1.0, 1.0
667,0.0228,0.132,3.45,0.132,3.45,-0.31430194041592946,0.0,0.949323069482029,0.0,1.0,-0.0,1.0,1.0,1.0, 1.0
668,0.0228,0.132,3.45,0.132,3.45,-0.3171340641223212,0.0,0.9483807175250135,0.0,1.0,-0.0,1.0,1.0,1.0, 1.0
669,0.0228,0.132,3.45,0.132,3.45,-0.3211393212559366,0.0,0.9470319616271018,0.0,1.0,-0.0,1.0,1.0,1.0, 1.0
670,0.0228,0.132,3.45,0.132,3.45,-0.3268418283213746,0.0,0.9450790545026068,0.0,1.0,-0.0,1.0,1.0,1.0, 1.0
671,0.0228,0.132,3.45,0.132,3.45,-0.33509430967907955,0.0,0.942184591054588,0.0,1.0,-0.0,1.0,1.0,1.0, 1.0
672,0.0228,0.132,3.45,0.132,3.45,-0.34702686900917856,0.0,0.9378551872147888,0.0,1.0,-0.0,1.0,1.0,1.0, 1.0
673,0.0228,0.132,3.45,0.132,3.45,-0.2661824171054063,0.0,0.9639226736745659,0.0,1.0,-0.0,1.0,1.0,1.0, 1.0
674,0.0228,0.132,3.45,0.132,3.45,-0.2651665415411679,0.0,0.9642026266543231,0.0,1.0,-0.0,1.0,1.0,1.0, 1.0
675,0.0228,0.132,3.45,0.132,3.45,-0.2642675737647789,0.0,0.9644494022272383,0.0,1.0,-0.0,1.0,1.0,1.0, 1.0
676,0.0228,0.132,3.45,0.132,3.45,-0.26352706716166113,0.0,0.964652001953644,0.0,1.0,-0.0,1.0,1.0,1.0, 1.0
677,0.0228,0.132,3.45,0.132,3.45,-0.2629716697164884,0.0,0.9648035556145728,0.0,1.0,-0.0,1.0,1.0,1.0, 1.0
678,0.0228,0.132,3.45,0.132,3.45,-0.2626321794929291,0.0,0.9648960246030626,0.0,1.0,-0.0,1.0,1.0,1.0, 1.0
679,0.0228,0.132,3.45,0.132,3.45,-0.2625478445266567,0.0,0.964918975528208,0.0,1.0,-0.0,1.0,1.0,1.0, 1.0
680,0.0228,0.132,3.45,0.132,3.45,-0.2627766539261944,0.0,0.9648566889188015,0.0,1.0,-0.0,1.0,1.0,1.0, 1.0
681,0.0228,0.132,3.45,0.132,3.45,-0.2634019797066875,0.0,0.9646861650747344,0.0,1.0,-0.0,1.0,1.0,1.0, 1.0
682,0.0228,0.132,3.45,0.132,3.45,-0.2645295660456172,0.0,0.9643775757905808,0.0,1.0,-0.0,1.0,1.0,1.0, 1.0
683,0.0228,0.132,3.45,0.132,3.45,-0.266288387697384,0.0,0.963893404157082,0.0,1.0,-0.0,1.0,1.0,1.0, 1.0
684,0.0228,0.132,3.45,0.132,3.45,-0.2688529829470033,0.0,0.9631812257101455,0.0,1.0,-0.0,1.0,1.0,1.0, 1.0
685,0.0228,0.132,3.45,0.132,3.45,-0.2724947695803175,0.0,0.9621572639394091,0.0,1.0,-0.0,1.0,1.0,1.0, 1.0
686,0.0228,0.132,3.45,0.132,3.45,-0.2776838939509379,0.0,0.9606725014489819,0.0,1.0,-0.0,1.0,1.0,1.0, 1.0
687,0.0228,0.132,3.45,0.132,3.45,-0.28518867511856566,0.0,0.9584713973740256,0.0,1.0,-0.0,1.0,1.0,1.0, 1.0
688,0.0228,0.132,3.45,0.132,3.45,-0.2960288545191247,0.0,0.9551789975141282,0.0,1.0,-0.0,1.0,1.0,1.0, 1.0
689,0.0228,0.132,3.45,0.132,3.45,-0.21857302698943565,0.0,0.9758205941015364,0.0,1.0,-0.0,1.0,1.0,1.0, 1.0
690,0.0228,0.132,3.45,0.132,3.45,-0.21755766363394027,0.0,0.9760474696417902,0.0,1.0,-0.0,1.0,1.0,1.0, 1.0
691,0.0228,0.132,3.45,0.132,3.45,-0.21665335490966978,0.0,0.9762485973390101,0.0,1.0,-0.0,1.0,1.0,1.0, 1.0
692,0.0228,0.132,3.45,0.132,3.45,-0.2159001937712195,0.0,0.9764154373674916,0.0,1.0,-0.0,1.0,1.0,1.0, 1.0
693,0.0228,0.132,3.45,0.132,3.45,-0.21532038072876328,0.0,0.9765434622395567,0.0,1.0,-0.0,1.0,1.0,1.0, 1.0
694,0.0228,0.132,3.45,0.132,3.45,-0.21493669216957778,0.0,0.9766279836044021,0.0,1.0,-0.0,1.0,1.0,1.0, 1.0
695,0.0228,0.132,3.45,0.132,3.45,-0.21478451282933392,0.0,0.9766614628665685,0.0,1.0,-0.0,1.0,1.0,1.0, 1.0
696,0.0228,0.132,3.45,0.132,3.45,-0.21491765709353117,0.0,0.9766321726573558,0.0,1.0,-0.0,1.0,1.0,1.0, 1.0
697,0.0228,0.132,3.45,0.132,3.45,-0.215407607643737,0.0,0.976524225285375,0.0,1.0,-0.0,1.0,1.0,1.0, 1.0
698,0.0228,0.132,3.45,0.132,3.45,-0.2163484189747794,0.0,0.9763162200880989,0.0,1.0,-0.0,1.0,1.0,1.0, 1.0
699,0.0228,0.132,3.45,0.132,3.45,-0.21785380618306083,0.0,0.9759814133125453,0.0,1.0,-0.0,1.0,1.0,1.0, 1.0
700,0.0228,0.132,3.45,0.132,3.45,-0.2200761816387982,0.0,0.9754826878398646,0.0,1.0,-0.0,1.0,1.0,1.0, 1.0
701,0.0228,0.132,3.45,0.132,3.45,-0.22324888228519887,0.0,0.9747614767513174,0.0,1.0,-0.0,1.0,1.0,1.0, 1.0
702,0.0228,0.132,3.45,0.132,3.45,-0.22777197009228606,0.0,0.9737145010937646,0.0,1.0,-0.0,1.0,1.0,1.0, 1.0
703,0.0228,0.132,3.45,0.132,3.45,-0.23430609824184379,0.0,0.9721628733533715,0.0,1.0,-0.0,1.0,1.0,1.0, 1.0
704,0.0228,0.132,3.45,0.132,3.45,-0.24374060594973584,0.0,0.9698404595660337,0.0,1.0,-0.0,1.0,1.0,1.0, 1.0
705,0.0228,0.132,3.45,0.132,3.45,-0.17046671418703946,0.0,0.9853634351620087,0.0,1.0,-0.0,1.0,1.0,1.0, 1.0
706,0.0228,0.132,3.45,0.132,3.45,-0.16951967072745674,0.0,0.9855268039157812,0.0,1.0,-0.0,1.0,1.0,1.0, 1.0
707,0.0228,0.132,3.45,0.132,3.45,-0.16867636044482553,0.0,0.9856714896085244,0.0,1.0,-0.0,1.0,1.0,1.0, 1.0
708,0.0228,0.132,3.45,0.132,3.45,-0.16796812872661204,0.0,0.9857924262906874,0.0,1.0,-0.0,1.0,1.0,1.0, 1.0
709,0.0228,0.132,3.45,0.132,3.45,-0.16741319303122187,0.0,0.9858868204814843,0.0,1.0,-0.0,1.0,1.0,1.0, 1.0
710,0.0228,0.132,3.45,0.132,3.45,-0.16702922486931146,0.0,0.9859519450964925,0.0,1.0,-0.0,1.0,1.0,1.0, 1.0
711,0.0228,0.132,3.45,0.132,3.45,-0.16684513816376542,0.0,0.9859831133803023,0.0,1.0,-0.0,1.0,1.0,1.0, 1.0
712,0.0228,0.132,3.45,0.132,3.45,-0.16690145912458038,0.0,0.985973581259704,0.0,1.0,-0.0,1.0,1.0,1.0, 1.0
713,0.0228,0.132,3.45,0.132,3.45,-0.16725776732082603,0.0,0.9859132006778549,0.0,1.0,-0.0,1.0,1.0,1.0, 1.0
714,0.0228,0.132,3.45,0.132,3.45,-0.1679952813696983,0.0,0.9857877993957502,0.0,1.0,-0.0,1.0,1.0,1.0, 1.0
715,0.0228,0.132,3.45,0.132,3.45,-0.16921139578054709,0.0,0.9855797804023777,0.0,1.0,-0.0,1.0,1.0,1.0, 1.0
716,0.0228,0.132,3.45,0.132,3.45,-0.171028554376681,0.0,0.9852660724838863,0.0,1.0,-0.0,1.0,1.0,1.0, 1.0
717,0.0228,0.132,3.45,0.132,3.45,-0.17363525627941323,0.0,0.9848100313140511,0.0,1.0,-0.0,1.0,1.0,1.0, 1.0
718,0.0228,0.132,3.45,0.132,3.45,-0.17735437139420834,0.0,0.9841470555498124,0.0,1.0,-0.0,1.0,1.0,1.0, 1.0
719,0.0228,0.132,3.45,0.132,3.45,-0.1827194848977568,0.0,0.9831650877847008,0.0,1.0,-0.0,1.0,1.0,1.0, 1.0
720,0.0228,0.132,3.45,0.132,3.45,-0.1904586902528848,0.0,0.9816952110034741,0.0,1.0,-0.0,1.0,1.0,1.0, 1.0
721,0.0228,0.132,3.45,0.132,3.45,-0.12198367858184266,0.0,0.9925321063621276,0.0,1.0,-0.0,1.0,1.0,1.0, 1.0
722,0.0228,0.132,3.45,0.132,3.45,-0.12117498501860481,0.0,0.9926311616132857,0.0,1.0,-0.0,1.0,1.0,1.0, 1.0
723,0.0228,0.132,3.45,0.132,3.45,-0.12046366963992867,0.0,0.9927177364673616,0.0,1.0,-0.0,1.0,1.0,1.0, 1.0
724,0.0228,0.132,3.45,0.132,3.45,-0.11987027050585547,0.0,0.9927895639302686,0.0,1.0,-0.0,1.0,1.0,1.0, 1.0
725,0.0228,0.132,3.45,0.132,3.45,-0.1194019708130644,0.0,0.9928459947876893,0.0,1.0,-0.0,1.0,1.0,1.0, 1.0
726,0.0228,0.132,3.45,0.132,3.45,-0.11906786936382961,0.0,0.9928861175810436,0.0,1.0,-0.0,1.0,1.0,1.0, 1.0
727,0.0228,0.132,3.45,0.132,3.45,-0.11888839394937468,0.0,0.9929076239933593,0.0,1.0,-0.0,1.0,1.0,1.0, 1.0
728,0.0228,0.132,3.45,0.132,3.45,-0.11889120909987029,0.0,0.9929072869098962,0.0,1.0,-0.0,1.0,1.0,1.0, 1.0
729,0.0228,0.132,3.45,0.132,3.45,-0.11912368448189908,0.0,0.9928794225863767,0.0,1.0,-0.0,1.0,1.0,1.0, 1.0
730,0.0228,0.132,3.45,0.132,3.45,-0.11965070561996491,0.0,0.9928160497517375,0.0,1.0,-0.0,1.0,1.0,1.0, 1.0
731,0.0228,0.132,3.45,0.132,3.45,-0.12054779231479855,0.0,0.9927075247866454,0.0,1.0,-0.0,1.0,1.0,1.0, 1.0
732,0.0228,0.132,3.45,0.132,3.45,-0.12190704257245895,0.0,0.9925415220388699,0.0,1.0,-0.0,1.0,1.0,1.0, 1.0
733,0.0228,0.132,3.45,0.132,3.45,-0.12386445749058421,0.0,0.992299146513068,0.0,1.0,-0.0,1.0,1.0,1.0, 1.0
734,0.0228,0.132,3.45,0.132,3.45,-0.1266567156791729,0.0,0.9919466096385253,0.0,1.0,-0.0,1.0,1.0,1.0, 1.0
735,0.0228,0.132,3.45,0.132,3.45,-0.1306758962265251,0.0,0.9914251409689964,0.0,1.0,-0.0,1.0,1.0,1.0, 1.0
736,0.0228,0.132,3.45,0.132,3.45,-0.13645709139549403,0.0,0.9906459822801895,0.0,1.0,-0.0,1.0,1.0,1.0, 1.0
737,0.0228,0.132,3.45,0.132,3.45,-0.07324672025994398,0.0,0.9973138512881297,0.0,1.0,-0.0,1.0,1.0,1.0, 1.0
738,0.0228,0.132,3.45,0.132,3.45,-0.07265830676402066,0.0,0.9973568922197238,0.0,1.0,-0.0,1.0,1.0,1.0, 1.0
739,0.0228,0.132,3.45,0.132,3.45,-0.07215966237545153,0.0,0.9973930935823953,0.0,1.0,-0.0,1.0,1.0,1.0, 1.0
740,0.0228,0.132,3.45,0.132,3.45,-0.0717526977977809,0.0,0.99742245330589,0.0,1.0,-0.0,1.0,1.0,1.0, 1.0
741,0.0228,0.132,3.45,0.132,3.45,-0.07143271223486891,0.0,0.99744542087413,0.0,1.0,-0.0,1.0,1.0,1.0, 1.0
742,0.0228,0.132,3.45,0.132,3.45,-0.07120046644842518,0.0,0.9974620261330889,0.0,1.0,-0.0,1.0,1.0,1.0, 1.0
743,0.0228,0.132,3.45,0.132,3.45,-0.07106467958608119,0.0,0.9974717095313168,0.0,1.0,-0.0,1.0,1.0,1.0, 1.0
744,0.0228,0.132,3.45,0.132,3.45,-0.07104117919875066,0.0,0.9974733835336415,0.0,1.0,-0.0,1.0,1.0,1.0, 1.0
745,0.0228,0.132,3.45,0.132,3.45,-0.07116190226750667,0.0,0.9974647781579407,0.0,1.0,-0.0,1.0,1.0,1.0, 1.0
746,0.0228,0.132,3.45,0.132,3.45,-0.0714733283975137,0.0,0.9974425112896388,0.0,1.0,-0.0,1.0,1.0,1.0, 1.0
747,0.0228,0.132,3.45,0.132,3.45,-0.07202622726800943,0.0,0.9974027384088822,0.0,1.0,-0.0,1.0,1.0,1.0, 1.0
748,0.0228,0.132,3.45,0.132,3.45,-0.07287949564569103,0.0,0.9973407537619374,0.0,1.0,-0.0,1.0,1.0,1.0, 1.0
749,0.0228,0.132,3.45,0.132,3.45,-0.07411465344032508,0.0,0.9972497270721213,0.0,1.0,-0.0,1.0,1.0,1.0, 1.0
750,0.0228,0.132,3.45,0.132,3.45,-0.07587132849600584,0.0,0.9971176166893508,0.0,1.0,-0.0,1.0,1.0,1.0, 1.0
751,0.0228,0.132,3.45,0.132,3.45,-0.07838613804891277,0.0,0.9969230729408246,0.0,1.0,-0.0,1.0,1.0,1.0, 1.0
752,0.0228,0.132,3.45,0.132,3.45,-0.08198596239591235,0.0,0.9966334842709309,0.0,1.0,-0.0,1.0,1.0,1.0, 1.0
753,0.0228,0.132,3.45,0.132,3.45,-0.02440051049478826,0.0,0.9997022632202018,0.0,1.0,-0.0,1.0,1.0,1.0, 1.0
754,0.0228,0.132,3.45,0.132,3.45,-0.02415288669934049,0.0,0.9997082764807386,0.0,1.0,-0.0,1.0,1.0,1.0, 1.0
755,0.0228,0.132,3.45,0.132,3.45,-0.023960470111705996,0.0,0.9997129067247387,0.0,1.0,-0.0,1.0,1.0,1.0, 1.0
756,0.0228,0.132,3.45,0.132,3.45,-0.02380956750209918,0.0,0.9997165120649768,0.0,1.0,-0.0,1.0,1.0,1.0, 1.0
757,0.0228,0.132,3.45,0.132,3.45,-0.02369212847091427,0.0,0.9997193021286113,0.0,1.0,-0.0,1.0,1.0,1.0, 1.0
758,0.0228,0.132,3.45,0.132,3.45,-0.023606369107051738,0.0,0.9997213308405406,0.0,1.0,-0.0,1.0,1.0,1.0, 1.0
759,0.0228,0.132,3.45,0.132,3.45,-0.023552635931408727,0.0,0.9997225981944604,0.0,1.0,-0.0,1.0,1.0,1.0, 1.0
760,0.0228,0.132,3.45,0.132,3.45,-0.0235340454980381,0.0,0.9997230359967186,0.0,1.0,-0.0,1.0,1.0,1.0, 1.0
761,0.0228,0.132,3.45,0.132,3.45,-0.023562983200226022,0.0,0.9997223543678043,0.0,1.0,-0.0,1.0,1.0,1.0, 1.0
762,0.0228,0.132,3.45,0.132,3.45,-0.023660256751299753,0.0,0.9997200569411732,0.0,1.0,-0.0,1.0,1.0,1.0, 1.0
763,0.0228,0.132,3.45,0.132,3.45,-0.02384770190227735,0.0,0.9997156031161962,0.0,1.0,-0.0,1.0,1.0,1.0, 1.0
764,0.0228,0.132,3.45,0.132,3.45,-0.02414641885874978,0.0,0.9997084327224102,0.0,1.0,-0.0,1.0,1.0,1.0, 1.0
765,0.0228,0.132,3.45,0.132,3.45,-0.02458186130674727,0.0,0.9996978203910898,0.0,1.0,-0.0,1.0,1.0,1.0, 1.0
766,0.0228,0.132,3.45,0.132,3.45,-0.025196916805957495,0.0,0.9996825072909267,0.0,1.0,-0.0,1.0,1.0,1.0, 1.0
767,0.0228,0.132,3.45,0.132,3.45,-0.02606887189278843,0.0,0.9996601492098388,0.0,1.0,-0.0,1.0,1.0,1.0, 1.0
768,0.0228,0.132,3.45,0.132,3.45,-0.027306071992563994,0.0,0.999627119696308,0.0,1.0,-0.0,1.0,1.0,1.0, 1.0
769,0.0228,0.132,3.45,0.132,3.45,-0.6895330485254757,0.0,0.7242542198642434,0.0,1.0,-0.0,1.0,1.0,1.0, 1.0
770,0.0228,0.132,3.45,0.132,3.45,-0.6895292394976542,0.0,0.7242578462659459,0.0,1.0,-0.0,1.0,1.0,1.0, 1.0
771,0.0228,0.132,3.45,0.132,3.45,-0.6895347511088489,0.0,0.724252598899899,0.0,1.0,-0.0,1.0,1.0,1.0, 1.0
772,0.0228,0.132,3.45,0.132,3.45,-0.6895511865330931,0.0,0.7242369509703322,0.0,1.0,-0.0,1.0,1.0,1.0, 1.0
773,0.0228,0.132,3.45,0.132,3.45,-0.6895829242589768,0.0,0.7242067319284171,0.0,1.0,-0.0,1.0,1.0,1.0, 1.0
774,0.0228,0.132,3.45,0.132,3.45,-0.6896314702471021,0.0,0.724160503786847,0.0,1.0,-0.0,1.0,1.0,1.0, 1.0
775,0.0228,0.132,3.45,0.132,3.45,-0.6897049581981984,0.0,0.7240905127377526,0.0,1.0,-0.0,1.0,1.0,1.0, 1.0
776,0.0228,0.132,3.45,0.132,3.45,-0.689807461571987,0.0,0.7239928631966007,0.0,1.0,-0.0,1.0,1.0,1.0, 1.0
777,0.0228,0.132,3.45,0.132,3.45,-0.6899451577360038,0.0,0.7238616437667083,0.0,1.0,-0.0,1.0,1.0,1.0, 1.0
778,0.0228,0.132,3.45,0.132,3.45,-0.690136217133297,0.0,0.7236794883102206,0.0,1.0,-0.0,1.0,1.0,1.0, 1.0
779,0.0228,0.132,3.45,0.132,3.45,-0.6903964600716518,0.0,0.723431218513918,0.0,1.0,-0.0,1.0,1.0,1.0, 1.0
780,0.0228,0.132,3.45,0.132,3.45,-0.690756768241602,0.0,0.7230871919266845,0.0,1.0,-0.0,1.0,1.0,1.0, 1.0
781,0.0228,0.132,3.45,0.132,3.45,-0.6912842763081504,0.0,0.722582901353967,0.0,1.0,-0.0,1.0,1.0,1.0, 1.0
782,0.0228,0.132,3.45,0.132,3.45,-0.6921378231776005,0.0,0.7217653591902097,0.0,1.0,-0.0,1.0,1.0,1.0, 1.0
783,0.0228,0.132,3.45,0.132,3.45,-0.6936813264247769,0.0,0.7202820401548009,0.0,1.0,-0.0,1.0,1.0,1.0, 1.0
784,0.0228,0.132,3.45,0.132,3.45,-0.6967035995170543,0.0,0.7173591111988333,0.0,1.0,-0.0,1.0,1.0,1.0, 1.0
785,0.0228,0.132,3.45,0.132,3.45,-0.6531515790873722,0.0,0.7572271883230766,0.0,1.0,-0.0,1.0,1.0,1.0, 1.0
786,0.0228,0.132,3.45,0.132,3.45,-0.6531237388275988,0.0,0.7572512012402876,0.0,1.0,-0.0,1.0,1.0,1.0, 1.0
787,0.0228,0.132,3.45,0.132,3.45,-0.6531245250196424,0.0,0.7572505231545679,0.0,1.0,-0.0,1.0,1.0,1.0, 1.0
788,0.0228,0.132,3.45,0.132,3.45,-0.653169225071388,0.0,0.7572119672982213,0.0,1.0,-0.0,1.0,1.0,1.0, 1.0
789,0.0228,0.132,3.45,0.132,3.45,-0.6532602079161914,0.0,0.7571334761805836,0.0,1.0,-0.0,1.0,1.0,1.0, 1.0
790,0.0228,0.132,3.45,0.132,3.45,-0.6534054011941904,0.0,0.7570081780867755,0.0,1.0,-0.0,1.0,1.0,1.0, 1.0
791,0.0228,0.132,3.45,0.132,3.45,-0.6536203854023648,0.0,0.7568225629475275,0.0,1.0,-0.0,1.0,1.0,1.0, 1.0
792,0.0228,0.132,3.45,0.132,3.45,-0.6539216600347674,0.0,0.7565622661337097,0.0,1.0,-0.0,1.0,1.0,1.0, 1.0
793,0.0228,0.132,3.45,0.132,3.45,-0.6543382353501974,0.0,0.7562020059208979,0.0,1.0,-0.0,1.0,1.0,1.0, 1.0
794,0.0228,0.132,3.45,0.132,3.45,-0.6549122030596194,0.0,0.7557049730441078,0.0,1.0,-0.0,1.0,1.0,1.0, 1.0
795,0.0228,0.132,3.45,0.132,3.45,-0.655696982835391,0.0,0.7550241497465925,0.0,1.0,-0.0,1.0,1.0,1.0, 1.0
796,0.0228,0.132,3.45,0.132,3.45,-0.656783818443911,0.0,0.7540789188342527,0.0,1.0,-0.0,1.0,1.0,1.0, 1.0
797,0.0228,0.132,3.45,0.132,3.45,-0.6583441218404881,0.0,0.7527170897741571,0.0,1.0,-0.0,1.0,1.0,1.0, 1.0
798,0.0228,0.132,3.45,0.132,3.45,-0.6607875114584665,0.0,0.7505730242291733,0.0,1.0,-0.0,1.0,1.0,1.0, 1.0
799,0.0228,0.132,3.45,0.132,3.45,-0.6650010656643899,0.0,0.7468424081861085,0.0,1.0,-0.0,1.0,1.0,1.0, 1.0
800,0.0228,0.132,3.45,0.132,3.45,-0.6726266465430798,0.0,0.7399820229979988,0.0,1.0,-0.0,1.0,1.0,1.0, 1.0
801,0.0228,0.132,3.45,0.132,3.45,-0.6151874655770851,0.0,0.7883808611304836,0.0,1.0,-0.0,1.0,1.0,1.0, 1.0
802,0.0228,0.132,3.45,0.132,3.45,-0.6151093815951095,0.0,0.7884417852154223,0.0,1.0,-0.0,1.0,1.0,1.0, 1.0
803,0.0228,0.132,3.45,0.132,3.45,-0.6150809541404603,0.0,0.788463962304975,0.0,1.0,-0.0,1.0,1.0,1.0, 1.0
804,0.0228,0.132,3.45,0.132,3.45,-0.615128886714281,0.0,0.7884265677472121,0.0,1.0,-0.0,1.0,1.0,1.0, 1.0
805,0.0228,0.132,3.45,0.132,3.45,-0.6152540580545162,0.0,0.7883288933227363,0.0,1.0,-0.0,1.0,1.0,1.0, 1.0
806,0.0228,0.132,3.45,0.132,3.45,-0.6154737006046065,0.0,0.7881574232753704,0.0,1.0,-0.0,1.0,1.0,1.0, 1.0
807,0.0228,0.132,3.45,0.132,3.45,-0.6158047798173492,0.0,0.7878987708799311,0.0,1.0,-0.0,1.0,1.0,1.0, 1.0
808,0.0228,0.132,3.45,0.132,3.45,-0.6162769121993303,0.0,0.7875295343604954,0.0,1.0,-0.0,1.0,1.0,1.0, 1.0
809,0.0228,0.132,3.45,0.132,3.45,-0.6169454547091042,0.0,0.7870059122482985,0.0,1.0,-0.0,1.0,1.0,1.0, 1.0
810,0.0228,0.132,3.45,0.132,3.45,-0.6178762356271156,0.0,0.7862753699864096,0.0,1.0,-0.0,1.0,1.0,1.0, 1.0
811,0.0228,0.132,3.45,0.132,3.45,-0.6191437441692794,0.0,0.7852776732188723,0.0,1.0,-0.0,1.0,1.0,1.0, 1.0
812,0.0228,0.132,3.45,0.132,3.45,-0.6208866242927372,0.0,0.7839003761795049,0.0,1.0,-0.0,1.0,1.0,1.0, 1.0
813,0.0228,0.132,3.45,0.132,3.45,-0.6233459616203818,0.0,0.7819461695868595,0.0,1.0,-0.0,1.0,1.0,1.0, 1.0
814,0.0228,0.132,3.45,0.132,3.45,-0.6270447354904556,0.0,0.7789832473767999,0.0,1.0,-0.0,1.0,1.0,1.0, 1.0
815,0.0228,0.132,3.45,0.132,3.45,-0.6330549428473621,0.0,0.7741068655789864,0.0,1.0,-0.0,1.0,1.0,1.0, 1.0
816,0.0228,0.132,3.45,0.132,3.45,-0.6430636715348228,0.0,0.7658127149324132,0.0,1.0,-0.0,1.0,1.0,1.0, 1.0
817,0.0228,0.132,3.45,0.132,3.45,-0.5757190347185731,0.0,0.8176475971118086,0.0,1.0,-0.0,1.0,1.0,1.0, 1.0
818,0.0228,0.132,3.45,0.132,3.45,-0.5755619992370875,0.0,0.8177581458073083,0.0,1.0,-0.0,1.0,1.0,1.0, 1.0
819,0.0228,0.132,3.45,0.132,3.45,-0.5754827548227842,0.0,0.8178139145927876,0.0,1.0,-0.0,1.0,1.0,1.0, 1.0
820,0.0228,0.132,3.45,0.132,3.45,-0.5754972617117098,0.0,0.817803706131443,0.0,1.0,-0.0,1.0,1.0,1.0, 1.0
821,0.0228,0.132,3.45,0.132,3.45,-0.5756148521094953,0.0,0.8177209438622468,0.0,1.0,-0.0,1.0,1.0,1.0, 1.0
822,0.0228,0.132,3.45,0.132,3.45,-0.5758680968109958,0.0,0.8175426197301776,0.0,1.0,-0.0,1.0,1.0,1.0, 1.0
823,0.0228,0.132,3.45,0.132,3.45,-0.5762745944032678,0.0,0.8172561360096046,0.0,1.0,-0.0,1.0,1.0,1.0, 1.0
824,0.0228,0.132,3.45,0.132,3.45,-0.5768770445851151,0.0,0.816830995635415,0.0,1.0,-0.0,1.0,1.0,1.0, 1.0
825,0.0228,0.132,3.45,0.132,3.45,-0.5777440645888821,0.0,0.8162179830365892,0.0,1.0,-0.0,1.0,1.0,1.0, 1.0
826,0.0228,0.132,3.45,0.132,3.45,-0.5789624214298101,0.0,0.815354226439117,0.0,1.0,-0.0,1.0,1.0,1.0, 1.0
827,0.0228,0.132,3.45,0.132,3.45,-0.5806362171686051,0.0,0.8141631183688761,0.0,1.0,-0.0,1.0,1.0,1.0, 1.0
828,0.0228,0.132,3.45,0.132,3.45,-0.5829219090744279,0.0,0.8125281828472317,0.0,1.0,-0.0,1.0,1.0,1.0, 1.0
829,0.0228,0.132,3.45,0.132,3.45,-0.5860959141847474,0.0,0.8102416796092049,0.0,1.0,-0.0,1.0,1.0,1.0, 1.0
830,0.0228,0.132,3.45,0.132,3.45,-0.5907240514457179,0.0,0.8068736549445376,0.0,1.0,-0.0,1.0,1.0,1.0, 1.0
831,0.0228,0.132,3.45,0.132,3.45,-0.5978970131621251,0.0,0.8015729297149509,0.0,1.0,-0.0,1.0,1.0,1.0, 1.0
832,0.0228,0.132,3.45,0.132,3.45,-0.6092661856086673,0.0,0.792965771691228,0.0,1.0,-0.0,1.0,1.0,1.0, 1.0
833,0.0228,0.132,3.45,0.132,3.45,-0.5348544533181971,0.0,0.844944207486916,0.0,1.0,-0.0,1.0,1.0,1.0, 1.0
834,0.0228,0.132,3.45,0.132,3.45,-0.5345879948962987,0.0,0.8451128183341884,0.0,1.0,-0.0,1.0,1.0,1.0, 1.0
835,0.0228,0.132,3.45,0.132,3.45,-0.5344165189059005,0.0,0.845221263528373,0.0,1.0,-0.0,1.0,1.0,1.0, 1.0
836,0.0228,0.132,3.45,0.132,3.45,-0.5343621460237181,0.0,0.8452556399675347,0.0,1.0,-0.0,1.0,1.0,1.0, 1.0
837,0.0228,0.132,3.45,0.132,3.45,-0.5344361514522898,0.0,0.8452088499423472,0.0,1.0,-0.0,1.0,1.0,1.0, 1.0
838,0.0228,0.132,3.45,0.132,3.45,-0.5346729863704415,0.0,0.8450590497981272,0.0,1.0,-0.0,1.0,1.0,1.0, 1.0
839,0.0228,0.132,3.45,0.132,3.45,-0.5351039650837304,0.0,0.8447862135189411,0.0,1.0,-0.0,1.0,1.0,1.0, 1.0
840,0.0228,0.132,3.45,0.132,3.45,-0.5357832320828633,0.0,0.8443555697801968,0.0,1.0,-0.0,1.0,1.0,1.0, 1.0
841,0.0228,0.132,3.45,0.132,3.45,-0.5367864980611435,0.0,0.8437181137674205,0.0,1.0,-0.0,1.0,1.0,1.0, 1.0
842,0.0228,0.132,3.45,0.132,3.45,-0.5382111528483652,0.0,0.8428100349127516,0.0,1.0,-0.0,1.0,1.0,1.0, 1.0
843,0.0228,0.132,3.45,0.132,3.45,-0.5401906559344555,0.0,0.8415426639458647,0.0,1.0,-0.0,1.0,1.0,1.0, 1.0
844,0.0228,0.132,3.45,0.132,3.45,-0.5428956643008799,0.0,0.8398001534194349,0.0,1.0,-0.0,1.0,1.0,1.0, 1.0
845,0.0228,0.132,3.45,0.132,3.45,-0.5466040166282072,0.0,0.8373912162220898,0.0,1.0,-0.0,1.0,1.0,1.0, 1.0
846,0.0228,0.132,3.45,0.132,3.45,-0.5518854801586113,0.0,0.8339199102972054,0.0,1.0,-0.0,1.0,1.0,1.0, 1.0
847,0.0228,0.132,3.45,0.132,3.45,-0.5598269523822865,0.0,0.8286095482109539,0.0,1.0,-0.0,1.0,1.0,1.0, 1.0
848,0.0228,0.132,3.45,0.132,3.45,-0.5720225699642953,0.0,0.8202378797955158,0.0,1.0,-0.0,1.0,1.0,1.0, 1.0
849,0.0228,0.132,3.45,0.132,3.45,-0.49268252450920996,0.0,0.8702091300619821,0.0,1.0,-0.0,1.0,1.0,1.0, 1.0
850,0.0228,0.132,3.45,0.132,3.45,-0.4922840762240574,0.0,0.8704345973685942,0.0,1.0,-0.0,1.0,1.0,1.0, 1.0
851,0.0228,0.132,3.45,0.132,3.45,-0.49198683570469237,0.0,0.8706026381152793,0.0,1.0,-0.0,1.0,1.0,1.0, 1.0
852,0.0228,0.132,3.45,0.132,3.45,-0.4918309504551601,0.0,0.8706907121213444,0.0,1.0,-0.0,1.0,1.0,1.0, 1.0
853,0.0228,0.132,3.45,0.132,3.45,-0.49183281501502296,0.0,0.8706896588764554,0.0,1.0,-0.0,1.0,1.0,1.0, 1.0
854,0.0228,0.132,3.45,0.132,3.45,-0.4920130461539846,0.0,0.8705878257902973,0.0,1.0,-0.0,1.0,1.0,1.0, 1.0
855,0.0228,0.132,3.45,0.132,3.45,-0.49241928659591677,0.0,0.8703581137602892,0.0,1.0,-0.0,1.0,1.0,1.0, 1.0
856,0.0228,0.132,3.45,0.132,3.45,-0.49311637963988664,0.0,0.8699633533263634,0.0,1.0,-0.0,1.0,1.0,1.0, 1.0
857,0.0228,0.132,3.45,0.132,3.45,-0.49418990386584744,0.0,0.8693539779152474,0.0,1.0,-0.0,1.0,1.0,1.0, 1.0
858,0.0228,0.132,3.45,0.132,3.45,-0.4957468765232714,0.0,0.8684670600646984,0.0,1.0,-0.0,1.0,1.0,1.0, 1.0
859,0.0228,0.132,3.45,0.132,3.45,-0.49793373159702153,0.0,0.8672150822822821,0.0,1.0,-0.0,1.0,1.0,1.0, 1.0
860,0.0228,0.132,3.45,0.132,3.45,-0.5009288688878578,0.0,0.8654884564884336,0.0,1.0,-0.0,1.0,1.0,1.0, 1.0
861,0.0228,0.132,3.45,0.132,3.45,-0.5050010298550832,0.0,0.8631187402931912,0.0,1.0,-0.0,1.0,1.0,1.0, 1.0
862,0.0228,0.132,3.45,0.132,3.45,-0.5107091477358945,0.0,0.859753549814641,0.0,1.0,-0.0,1.0,1.0,1.0, 1.0
863,0.0228,0.132,3.45,0.132,3.45,-0.5191209597953209,0.0,0.8547007833746175,0.0,1.0,-0.0,1.0,1.0,1.0, 1.0
864,0.0228,0.132,3.45,0.132,3.45,-0.531788068517486,0.0,0.8468774705838156,0.0,1.0,-0.0,1.0,1.0,1.0, 1.0
865,0.0228,0.132,3.45,0.132,3.45,-0.44931257069345265,0.0,0.8933746212070506,0.0,1.0,-0.0,1.0,1.0,1.0, 1.0
866,0.0228,0.132,3.45,0.132,3.45,-0.44876329873338777,0.0,0.893650659771439,0.0,1.0,-0.0,1.0,1.0,1.0, 1.0
867,0.0228,0.132,3.45,0.132,3.45,-0.4483259864373572,0.0,0.8938701303237347,0.0,1.0,-0.0,1.0,1.0,1.0, 1.0
868,0.0228,0.132,3.45,0.132,3.45,-0.4480447936164485,0.0,0.8940111089428331,0.0,1.0,-0.0,1.0,1.0,1.0, 1.0
869,0.0228,0.132,3.45,0.132,3.45,-0.4479416297352159,0.0,0.8940628033590027,0.0,1.0,-0.0,1.0,1.0,1.0, 1.0
870,0.0228,0.132,3.45,0.132,3.45,-0.448036417013942,0.0,0.8940153069323304,0.0,1.0,-0.0,1.0,1.0,1.0, 1.0
871,0.0228,0.132,3.45,0.132,3.45,-0.44838144865236423,0.0,0.8938423107597936,0.0,1.0,-0.0,1.0,1.0,1.0, 1.0
872,0.0228,0.132,3.45,0.132,3.45,-0.4490497184396915,0.0,0.8935067713057544,0.0,1.0,-0.0,1.0,1.0,1.0, 1.0
873,0.0228,0.132,3.45,0.132,3.45,-0.45012809178807195,0.0,0.8929639975851373,0.0,1.0,-0.0,1.0,1.0,1.0, 1.0
874,0.0228,0.132,3.45,0.132,3.45,-0.4517412294931619,0.0,0.8921490131003937,0.0,1.0,-0.0,1.0,1.0,1.0, 1.0
875,0.0228,0.132,3.45,0.132,3.45,-0.4540438015273613,0.0,0.8909793635626935,0.0,1.0,-0.0,1.0,1.0,1.0, 1.0
876,0.0228,0.132,3.45,0.132,3.45,-0.45720054721932113,0.0,0.8893636262082868,0.0,1.0,-0.0,1.0,1.0,1.0, 1.0
877,0.0228,0.132,3.45,0.132,3.45,-0.4614808754383285,0.0,0.8871501573040914,0.0,1.0,-0.0,1.0,1.0,1.0, 1.0
878,0.0228,0.132,3.45,0.132,3.45,-0.46742069236050876,0.0,0.8840350085563483,0.0,1.0,-0.0,1.0,1.0,1.0, 1.0
879,0.0228,0.132,3.45,0.132,3.45,-0.47605025132517753,0.0,0.8794180793076951,0.0,1.0,-0.0,1.0,1.0,1.0, 1.0
880,0.0228,0.132,3.45,0.132,3.45,-0.48889093288789315,0.0,0.8723449178736616,0.0,1.0,-0.0,1.0,1.0,1.0, 1.0
881,0.0228,0.132,3.45,0.132,3.45,-0.4048657778582833,0.0,0.9143761271595006,0.0,1.0,-0.0,1.0,1.0,1.0, 1.0
882,0.0228,0.132,3.45,0.132,3.45,-0.40416166913703816,0.0,0.9146875669868719,0.0,1.0,-0.0,1.0,1.0,1.0, 1.0
883,0.0228,0.132,3.45,0.132,3.45,-0.40357849692086334,0.0,0.9149450239348245,0.0,1.0,-0.0,1.0,1.0,1.0, 1.0
884,0.0228,0.132,3.45,0.132,3.45,-0.4031604125908666,0.0,0.9151293251336459,0.0,1.0,-0.0,1.0,1.0,1.0, 1.0
885,0.0228,0.132,3.45,0.132,3.45,-0.40293435711820463,0.0,0.9152288805832884,0.0,1.0,-0.0,1.0,1.0,1.0, 1.0
886,0.0228,0.132,3.45,0.132,3.45,-0.4029241472929942,0.0,0.9152333754448717,0.0,1.0,-0.0,1.0,1.0,1.0, 1.0
887,0.0228,0.132,3.45,0.132,3.45,-0.40318091570600806,0.0,0.9151202922077866,0.0,1.0,-0.0,1.0,1.0,1.0, 1.0
888,0.0228,0.132,3.45,0.132,3.45,-0.4037796550273132,0.0,0.914856267501089,0.0,1.0,-0.0,1.0,1.0,1.0, 1.0
889,0.0228,0.132,3.45,0.132,3.45,-0.40481238190015284,0.0,0.9143997678588534,0.0,1.0,-0.0,1.0,1.0,1.0, 1.0
890,0.0228,0.132,3.45,0.132,3.45,-0.4064091454977725,0.0,0.9136911986310092,0.0,1.0,-0.0,1.0,1.0,1.0, 1.0
891,0.0228,0.132,3.45,0.132,3.45,-0.40872554271148537,0.0,0.9126573457411066,0.0,1.0,-0.0,1.0,1.0,1.0, 1.0
892,0.0228,0.132,3.45,0.132,3.45,-0.4119237331436098,0.0,0.9112183262385761,0.0,1.0,-0.0,1.0,1.0,1.0, 1.0
893,0.0228,0.132,3.45,0.132,3.45,-0.41626366940249965,0.0,0.909243948308465,0.0,1.0,-0.0,1.0,1.0,1.0, 1.0
894,0.0228,0.132,3.45,0.132,3.45,-0.4222499414423861,0.0,0.9064794465137649,0.0,1.0,-0.0,1.0,1.0,1.0, 1.0
895,0.0228,0.132,3.45,0.132,3.45,-0.43087107226154336,0.0,0.9024134967342786,0.0,1.0,-0.0,1.0,1.0,1.0, 1.0
896,0.0228,0.132,3.45,0.132,3.45,-0.44359736330743466,0.0,0.8962261875590848,0.0,1.0,-0.0,1.0,1.0,1.0, 1.0
897,0.0228,0.132,3.45,0.132,3.45,-0.3594460774949404,0.0,0.9331658573766516,0.0,1.0,-0.0,1.0,1.0,1.0, 1.0
898,0.0228,0.132,3.45,0.132,3.45,-0.3586029730611477,0.0,0.9334901754767994,0.0,1.0,-0.0,1.0,1.0,1.0, 1.0
899,0.0228,0.132,3.45,0.132,3.45,-0.3578870709890487,0.0,0.9337648764110158,0.0,1.0,-0.0,1.0,1.0,1.0, 1.0
900,0.0228,0.132,3.45,0.132,3.45,-0.35733988488396073,0.0,0.9339744143557239,0.0,1.0,-0.0,1.0,1.0,1.0, 1.0
901,0.0228,0.132,3.45,0.132,3.45,-0.35699318184922607,0.0,0.9341069896500964,0.0,1.0,-0.0,1.0,1.0,1.0, 1.0
902,0.0228,0.132,3.45,0.132,3.45,-0.3568714227671649,0.0,0.9341535139430455,0.0,1.0,-0.0,1.0,1.0,1.0, 1.0
903,0.0228,0.132,3.45,0.132,3.45,-0.3570215544436814,0.0,0.9340961458343662,0.0,1.0,-0.0,1.0,1.0,1.0, 1.0
904,0.0228,0.132,3.45,0.132,3.45,-0.35751723620003106,0.0,0.9339065401954798,0.0,1.0,-0.0,1.0,1.0,1.0, 1.0
905,0.0228,0.132,3.45,0.132,3.45,-0.35846110466187486,0.0,0.9335446622655974,0.0,1.0,-0.0,1.0,1.0,1.0, 1.0
906,0.0228,0.132,3.45,0.132,3.45,-0.3599811505314439,0.0,0.9329595764351518,0.0,1.0,-0.0,1.0,1.0,1.0, 1.0
907,0.0228,0.132,3.45,0.132,3.45,-0.36222392887773597,0.0,0.932091103566801,0.0,1.0,-0.0,1.0,1.0,1.0, 1.0
908,0.0228,0.132,3.45,0.132,3.45,-0.3653495414163378,0.0,0.9308704059034595,0.0,1.0,-0.0,1.0,1.0,1.0, 1.0
909,0.0228,0.132,3.45,0.132,3.45,-0.3696028546340307,0.0,0.9291898244419036,0.0,1.0,-0.0,1.0,1.0,1.0, 1.0
910,0.0228,0.132,3.45,0.132,3.45,-0.3754583445757432,0.0,0.9268392695006198,0.0,1.0,-0.0,1.0,1.0,1.0, 1.0
911,0.0228,0.132,3.45,0.132,3.45,-0.38384196079575345,0.0,0.9233988028649763,0.0,1.0,-0.0,1.0,1.0,1.0, 1.0
912,0.0228,0.132,3.45,0.132,3.45,-0.3961534893690606,0.0,0.9181843022295237,0.0,1.0,-0.0,1.0,1.0,1.0, 1.0
913,0.0228,0.132,3.45,0.132,3.45,-0.3131777757130612,0.0,0.9496945197269591,0.0,1.0,-0.0,1.0,1.0,1.0, 1.0
914,0.0228,0.132,3.45,0.132,3.45,-0.31222588689158376,0.0,0.9500078923644604,0.0,1.0,-0.0,1.0,1.0,1.0, 1.0
915,0.0228,0.132,3.45,0.132,3.45,-0.3114050131941046,0.0,0.9502772846688379,0.0,1.0,-0.0,1.0,1.0,1.0, 1.0
916,0.0228,0.132,3.45,0.132,3.45,-0.31075218764275153,0.0,0.9504909667509966,0.0,1.0,-0.0,1.0,1.0,1.0, 1.0
917,0.0228,0.132,3.45,0.132,3.45,-0.3102955511497569,0.0,0.9506401374530052,0.0,1.0,-0.0,1.0,1.0,1.0, 1.0
918,0.0228,0.132,3.45,0.132,3.45,-0.31006474883505003,0.0,0.9507154419329988,0.0,1.0,-0.0,1.0,1.0,1.0, 1.0
919,0.0228,0.132,3.45,0.132,3.45,-0.3101054755319421,0.0,0.9507021584308663,0.0,1.0,-0.0,1.0,1.0,1.0, 1.0
920,0.0228,0.132,3.45,0.132,3.45,-0.3104866412144308,0.0,0.9505777430738536,0.0,1.0,-0.0,1.0,1.0,1.0, 1.0
921,0.0228,0.132,3.45,0.132,3.45,-0.31130712231109764,0.0,0.950309357840058,0.0,1.0,-0.0,1.0,1.0,1.0, 1.0
922,0.0228,0.132,3.45,0.132,3.45,-0.31269632855187435,0.0,0.949853149760624,0.0,1.0,-0.0,1.0,1.0,1.0, 1.0
923,0.0228,0.132,3.45,0.132,3.45,-0.314793360811944,0.0,0.9491602288279474,0.0,1.0,-0.0,1.0,1.0,1.0, 1.0
924,0.0228,0.132,3.45,0.132,3.45,-0.3177452760606101,0.0,0.9481761120916128,0.0,1.0,-0.0,1.0,1.0,1.0, 1.0
925,0.0228,0.132,3.45,0.132,3.45,-0.3217768052894622,0.0,0.9468155509800774,0.0,1.0,-0.0,1.0,1.0,1.0, 1.0
926,0.0228,0.132,3.45,0.132,3.45,-0.3273252522681198,0.0,0.9449117309186142,0.0,1.0,-0.0,1.0,1.0,1.0, 1.0
927,0.0228,0.132,3.45,0.132,3.45,-0.3352441214093329,0.0,0.9421312960837701,0.0,1.0,-0.0,1.0,1.0,1.0, 1.0
928,0.0228,0.132,3.45,0.132,3.45,-0.3468340426682294,0.0,0.9379265146302309,0.0,1.0,-0.0,1.0,1.0,1.0, 1.0
929,0.0228,0.132,3.45,0.132,3.45,-0.2661793269384417,0.0,0.9639235270033605,0.0,1.0,-0.0,1.0,1.0,1.0, 1.0
930,0.0228,0.132,3.45,0.132,3.45,-0.2651626274891227,0.0,0.9642037030540095,0.0,1.0,-0.0,1.0,1.0,1.0, 1.0
931,0.0228,0.132,3.45,0.132,3.45,-0.26427556393484675,0.0,0.9644472128151539,0.0,1.0,-0.0,1.0,1.0,1.0, 1.0
932,0.0228,0.132,3.45,0.132,3.45,-0.26355381954211876,0.0,0.9646446932444921,0.0,1.0,-0.0,1.0,1.0,1.0, 1.0
933,0.0228,0.132,3.45,0.132,3.45,-0.2630192138378947,0.0,0.9647905954931857,0.0,1.0,-0.0,1.0,1.0,1.0, 1.0
934,0.0228,0.132,3.45,0.132,3.45,-0.2627000071071544,0.0,0.9648775602458071,0.0,1.0,-0.0,1.0,1.0,1.0, 1.0
935,0.0228,0.132,3.45,0.132,3.45,-0.26264113049533894,0.0,0.9648935882117416,0.0,1.0,-0.0,1.0,1.0,1.0, 1.0
936,0.0228,0.132,3.45,0.132,3.45,-0.26290499382654225,0.0,0.9648217266526835,0.0,1.0,-0.0,1.0,1.0,1.0, 1.0
937,0.0228,0.132,3.45,0.132,3.45,-0.26358545196445154,0.0,0.9646360502866849,0.0,1.0,-0.0,1.0,1.0,1.0, 1.0
938,0.0228,0.132,3.45,0.132,3.45,-0.2648043882981608,0.0,0.964302149711405,0.0,1.0,-0.0,1.0,1.0,1.0, 1.0
939,0.0228,0.132,3.45,0.132,3.45,-0.2666881174435671,0.0,0.9637828842713518,0.0,1.0,-0.0,1.0,1.0,1.0, 1.0
940,0.0228,0.132,3.45,0.132,3.45,-0.2693723264444893,0.0,0.9630361103021441,0.0,1.0,-0.0,1.0,1.0,1.0, 1.0
941,0.0228,0.132,3.45,0.132,3.45,-0.2730543763567866,0.0,0.9619986005979461,0.0,1.0,-0.0,1.0,1.0,1.0, 1.0
942,0.0228,0.132,3.45,0.132,3.45,-0.27812606310324967,0.0,0.9605445814862978,0.0,1.0,-0.0,1.0,1.0,1.0, 1.0
943,0.0228,0.132,3.45,0.132,3.45,-0.285354127375402,0.0,0.9584221522845884,0.0,1.0,-0.0,1.0,1.0,1.0, 1.0
944,0.0228,0.132,3.45,0.132,3.45,-0.2959083806318424,0.0,0.955216326426554,0.0,1.0,-0.0,1.0,1.0,1.0, 1.0
945,0.0228,0.132,3.45,0.132,3.45,-0.21856622523110938,0.0,0.9758221175953249,0.0,1.0,-0.0,1.0,1.0,1.0, 1.0
946,0.0228,0.132,3.45,0.132,3.45,-0.21754521895136245,0.0,0.9760502434359636,0.0,1.0,-0.0,1.0,1.0,1.0, 1.0
947,0.0228,0.132,3.45,0.132,3.45,-0.21664679646939047,0.0,0.9762500527936223,0.0,1.0,-0.0,1.0,1.0,1.0, 1.0
948,0.0228,0.132,3.45,0.132,3.45,-0.21590537369350632,0.0,0.976414291994063,0.0,1.0,-0.0,1.0,1.0,1.0, 1.0
949,0.0228,0.132,3.45,0.132,3.45,-0.21533841045031213,0.0,0.9765394866490208,0.0,1.0,-0.0,1.0,1.0,1.0, 1.0
950,0.0228,0.132,3.45,0.132,3.45,-0.21496730853346271,0.0,0.9766212450391805,0.0,1.0,-0.0,1.0,1.0,1.0, 1.0
951,0.0228,0.132,3.45,0.132,3.45,-0.21483119994713845,0.0,0.9766511944032386,0.0,1.0,-0.0,1.0,1.0,1.0, 1.0
952,0.0228,0.132,3.45,0.132,3.45,-0.21498800909433866,0.0,0.9766166883407494,0.0,1.0,-0.0,1.0,1.0,1.0, 1.0
953,0.0228,0.132,3.45,0.132,3.45,-0.2155217798993665,0.0,0.9764990334808371,0.0,1.0,-0.0,1.0,1.0,1.0, 1.0
954,0.0228,0.132,3.45,0.132,3.45,-0.2165410453482171,0.0,0.9762735147895294,0.0,1.0,-0.0,1.0,1.0,1.0, 1.0
955,0.0228,0.132,3.45,0.132,3.45,-0.21815573588708545,0.0,0.9759139690052419,0.0,1.0,-0.0,1.0,1.0,1.0, 1.0
956,0.0228,0.132,3.45,0.132,3.45,-0.22048826748071396,0.0,0.9753896267150647,0.0,1.0,-0.0,1.0,1.0,1.0, 1.0
957,0.0228,0.132,3.45,0.132,3.45,-0.22370910810751607,0.0,0.9746559572227216,0.0,1.0,-0.0,1.0,1.0,1.0, 1.0
958,0.0228,0.132,3.45,0.132,3.45,-0.22814677304789427,0.0,0.9736267508382421,0.0,1.0,-0.0,1.0,1.0,1.0, 1.0
959,0.0228,0.132,3.45,0.132,3.45,-0.23446152733128975,0.0,0.9721253994220493,0.0,1.0,-0.0,1.0,1.0,1.0, 1.0
960,0.0228,0.132,3.45,0.132,3.45,-0.2436685781712914,0.0,0.9698585587661642,0.0,1.0,-0.0,1.0,1.0,1.0, 1.0
961,0.0228,0.132,3.45,0.132,3.45,-0.17046046423224362,0.0,0.985364516376416,0.0,1.0,-0.0,1.0,1.0,1.0, 1.0
962,0.0228,0.132,3.45,0.132,3.45,-0.16950793094325156,0.0,0.9855288231946024,0.0,1.0,-0.0,1.0,1.0,1.0, 1.0
963,0.0228,0.132,3.45,0.132,3.45,-0.16866581803806482,0.0,0.9856732936554335,0.0,1.0,-0.0,1.0,1.0,1.0, 1.0
964,0.0228,0.132,3.45,0.132,3.45,-0.1679642667110715,0.0,0.9857930843276453,0.0,1.0,-0.0,1.0,1.0,1.0, 1.0
965,0.0228,0.132,3.45,0.132,3.45,-0.1674172834958052,0.0,0.985886125871992,0.0,1.0,-0.0,1.0,1.0,1.0, 1.0
966,0.0228,0.132,3.45,0.132,3.45,-0.1670398801320235,0.0,0.9859501399388709,0.0,1.0,-0.0,1.0,1.0,1.0, 1.0
967,0.0228,0.132,3.45,0.132,3.45,-0.166862588001899,0.0,0.9859801604116122,0.0,1.0,-0.0,1.0,1.0,1.0, 1.0
968,0.0228,0.132,3.45,0.132,3.45,-0.1669323029528178,0.0,0.9859683596499781,0.0,1.0,-0.0,1.0,1.0,1.0, 1.0
969,0.0228,0.132,3.45,0.132,3.45,-0.16732262117228466,0.0,0.9859021961858266,0.0,1.0,-0.0,1.0,1.0,1.0, 1.0
970,0.0228,0.132,3.45,0.132,3.45,-0.16812472456067587,0.0,0.9857657312928852,0.0,1.0,-0.0,1.0,1.0,1.0, 1.0
971,0.0228,0.132,3.45,0.132,3.45,-0.16943034691554623,0.0,0.9855421642649682,0.0,1.0,-0.0,1.0,1.0,1.0, 1.0
972,0.0228,0.132,3.45,0.132,3.45,-0.17134070835967288,0.0,0.9852118359311389,0.0,1.0,-0.0,1.0,1.0,1.0, 1.0
973,0.0228,0.132,3.45,0.132,3.45,-0.17399463458956582,0.0,0.9847466004683861,0.0,1.0,-0.0,1.0,1.0,1.0, 1.0
974,0.0228,0.132,3.45,0.132,3.45,-0.17765647334968915,0.0,0.9840925655023267,0.0,1.0,-0.0,1.0,1.0,1.0, 1.0
975,0.0228,0.132,3.45,0.132,3.45,-0.1828557601986524,0.0,0.9831397514911971,0.0,1.0,-0.0,1.0,1.0,1.0, 1.0
976,0.0228,0.132,3.45,0.132,3.45,-0.1904214626523418,0.0,0.981702432797914,0.0,1.0,-0.0,1.0,1.0,1.0, 1.0
977,0.0228,0.132,3.45,0.132,3.45,-0.12198297975444596,0.0,0.9925321922488088,0.0,1.0,-0.0,1.0,1.0,1.0, 1.0
978,0.0228,0.132,3.45,0.132,3.45,-0.1211736189711794,0.0,0.9926313283719325,0.0,1.0,-0.0,1.0,1.0,1.0, 1.0
979,0.0228,0.132,3.45,0.132,3.45,-0.12046404337559591,0.0,0.9927176911154563,0.0,1.0,-0.0,1.0,1.0,1.0, 1.0
980,0.0228,0.132,3.45,0.132,3.45,-0.11987462256206156,0.0,0.9927890384495608,0.0,1.0,-0.0,1.0,1.0,1.0, 1.0
981,0.0228,0.132,3.45,0.132,3.45,-0.11941028280251358,0.0,0.9928449951331898,0.0,1.0,-0.0,1.0,1.0,1.0, 1.0
982,0.0228,0.132,3.45,0.132,3.45,-0.1190784665095045,0.0,0.9928848467036571,0.0,1.0,-0.0,1.0,1.0,1.0, 1.0
983,0.0228,0.132,3.45,0.132,3.45,-0.11890127443448256,0.0,0.9929060816300078,0.0,1.0,-0.0,1.0,1.0,1.0, 1.0
984,0.0228,0.132,3.45,0.132,3.45,-0.11891250079011677,0.0,0.9929047372008256,0.0,1.0,-0.0,1.0,1.0,1.0, 1.0
985,0.0228,0.132,3.45,0.132,3.45,-0.11916941129932518,0.0,0.9928739353062765,0.0,1.0,-0.0,1.0,1.0,1.0, 1.0
986,0.0228,0.132,3.45,0.132,3.45,-0.11974464116146225,0.0,0.992804724461519,0.0,1.0,-0.0,1.0,1.0,1.0, 1.0
987,0.0228,0.132,3.45,0.132,3.45,-0.12071071651540412,0.0,0.9926877267894157,0.0,1.0,-0.0,1.0,1.0,1.0, 1.0
988,0.0228,0.132,3.45,0.132,3.45,-0.12214239999204662,0.0,0.9925125863807385,0.0,1.0,-0.0,1.0,1.0,1.0, 1.0
989,0.0228,0.132,3.45,0.132,3.45,-0.12413865068201459,0.0,0.9922648816756788,0.0,1.0,-0.0,1.0,1.0,1.0, 1.0
990,0.0228,0.132,3.45,0.132,3.45,-0.12689424438702845,0.0,0.9919162518788797,0.0,1.0,-0.0,1.0,1.0,1.0, 1.0
991,0.0228,0.132,3.45,0.132,3.45,-0.13079725853407953,0.0,0.9914091371174512,0.0,1.0,-0.0,1.0,1.0,1.0, 1.0
992,0.0228,0.132,3.45,0.132,3.45,-0.13645716162484406,0.0,0.9906459726064055,0.0,1.0,-0.0,1.0,1.0,1.0, 1.0
993,0.0228,0.132,3.45,0.132,3.45,-0.07325256952913627,0.0,0.9973134216771471,0.0,1.0,-0.0,1.0,1.0,1.0, 1.0
994,0.0228,0.132,3.45,0.132,3.45,-0.07267296419356238,0.0,0.9973558243051079,0.0,1.0,-0.0,1.0,1.0,1.0, 1.0
995,0.0228,0.132,3.45,0.132,3.45,-0.07218013080089744,0.0,0.9973916125161497,0.0,1.0,-0.0,1.0,1.0,1.0, 1.0
996,0.0228,0.132,3.45,0.132,3.45,-0.07177703626048781,0.0,0.9974207021441156,0.0,1.0,-0.0,1.0,1.0,1.0, 1.0
997,0.0228,0.132,3.45,0.132,3.45,-0.07145872376941895,0.0,0.9974435577000063,0.0,1.0,-0.0,1.0,1.0,1.0, 1.0
998,0.0228,0.132,3.45,0.132,3.45,-0.07122687647702278,0.0,0.997460140590754,0.0,1.0,-0.0,1.0,1.0,1.0, 1.0
999,0.0228,0.132,3.45,0.132,3.45,-0.07109237251178736,0.0,0.9974697361677923,0.0,1.0,-0.0,1.0,1.0,1.0, 1.0
1000,0.0228,0.132,3.45,0.132,3.45,-0.07107570674298785,0.0,0.9974709238423869,0.0,1.0,-0.0,1.0,1.0,1.0, 1.0
1001,0.0228,0.132,3.45,0.132,3.45,-0.07121336686535626,0.0,0.9974611051964384,0.0,1.0,-0.0,1.0,1.0,1.0, 1.0
1002,0.0228,0.132,3.45,0.132,3.45,-0.07155626554011796,0.0,0.9974365648310433,0.0,1.0,-0.0,1.0,1.0,1.0, 1.0
1003,0.0228,0.132,3.45,0.132,3.45,-0.07215531859027764,0.0,0.9973934078382187,0.0,1.0,-0.0,1.0,1.0,1.0, 1.0
1004,0.0228,0.132,3.45,0.132,3.45,-0.07305623415699994,0.0,0.9973278230606011,0.0,1.0,-0.0,1.0,1.0,1.0, 1.0
1005,0.0228,0.132,3.45,0.132,3.45,-0.0743172575603507,0.0,0.9972346490313644,0.0,1.0,-0.0,1.0,1.0,1.0, 1.0
1006,0.0228,0.132,3.45,0.132,3.45,-0.07605373043966172,0.0,0.9971037208265804,0.0,1.0,-0.0,1.0,1.0,1.0, 1.0
1007,0.0228,0.132,3.45,0.132,3.45,-0.07850057865376961,0.0,0.9969140680876278,0.0,1.0,-0.0,1.0,1.0,1.0, 1.0
1008,0.0228,0.132,3.45,0.132,3.45,-0.0820294342143062,0.0,0.9966299071984951,0.0,1.0,-0.0,1.0,1.0,1.0, 1.0
1009,0.0228,0.132,3.45,0.132,3.45,-0.02440686879216564,0.0,0.9997021080080616,0.0,1.0,-0.0,1.0,1.0,1.0, 1.0
1010,0.0228,0.132,3.45,0.132,3.45,-0.024169245014834265,0.0,0.9997078811309896,0.0,1.0,-0.0,1.0,1.0,1.0, 1.0
1011,0.0228,0.132,3.45,0.132,3.45,-0.02398209402088646,0.0,0.9997123882229195,0.0,1.0,-0.0,1.0,1.0,1.0, 1.0
1012,0.0228,0.132,3.45,0.132,3.45,-0.023834087349101255,0.0,0.999715927791608,0.0,1.0,-0.0,1.0,1.0,1.0, 1.0
1013,0.0228,0.132,3.45,0.132,3.45,-0.023717908438752933,0.0,0.9997186908422243,0.0,1.0,-0.0,1.0,1.0,1.0, 1.0
1014,0.0228,0.132,3.45,0.132,3.45,-0.02363266867366031,0.0,0.9997207094840843,0.0,1.0,-0.0,1.0,1.0,1.0, 1.0
1015,0.0228,0.132,3.45,0.132,3.45,-0.023579950826610963,0.0,0.999721954304803,0.0,1.0,-0.0,1.0,1.0,1.0, 1.0
1016,0.0228,0.132,3.45,0.132,3.45,-0.023564585470437476,0.0,0.9997223166017684,0.0,1.0,-0.0,1.0,1.0,1.0, 1.0
1017,0.0228,0.132,3.45,0.132,3.45,-0.023600645629381585,0.0,0.9997214659723358,0.0,1.0,-0.0,1.0,1.0,1.0, 1.0
1018,0.0228,0.132,3.45,0.132,3.45,-0.02371045831839826,0.0,0.9997188675654428,0.0,1.0,-0.0,1.0,1.0,1.0, 1.0
1019,0.0228,0.132,3.45,0.132,3.45,-0.023915859296062006,0.0,0.9997139749318957,0.0,1.0,-0.0,1.0,1.0,1.0, 1.0
1020,0.0228,0.132,3.45,0.132,3.45,-0.02423266466832577,0.0,0.9997063458651607,0.0,1.0,-0.0,1.0,1.0,1.0, 1.0
1021,0.0228,0.132,3.45,0.132,3.45,-0.024678047190388994,0.0,0.9996954506182715,0.0,1.0,-0.0,1.0,1.0,1.0, 1.0
1022,0.0228,0.132,3.45,0.132,3.45,-0.02528800856023987,0.0,0.9996802071778041,0.0,1.0,-0.0,1.0,1.0,1.0, 1.0
1023,0.0228,0.132,3.45,0.132,3.45,-0.026138605333498422,0.0,0.9996583282858296,0.0,1.0,-0.0,1.0,1.0,1.0, 1.0
1024,0.0228,0.132,3.45,0.132,3.45,-0.02735276469779505,0.0,0.9996258431350137,0.0,1.0,-0.0,1.0,1.0,1.0, 1.0
1025,0.0228,0.132,3.45,0.132,3.45,-0.6895418258549557,0.0,0.7242458632236805,0.0,1.0,-0.0,1.0,1.0,1.0, 1.0
1026,0.0228,0.132,3.45,0.132,3.45,-0.6895534995570535,0.0,0.7242347487166165,0.0,1.0,-0.0,1.0,1.0,1.0, 1.0
1027,0.0228,0.132,3.45,0.132,3.45,-0.6895759420222087,0.0,0.7242133802852467,0.0,1.0,-0.0,1.0,1.0,1.0, 1.0
1028,0.0228,0.132,3.45,0.132,3.45,-0.6896144855811734,0.0,0.7241766782192128,0.0,1.0,-0.0,1.0,1.0,1.0, 1.0
1029,0.0228,0.132,3.45,0.132,3.45,-0.6896692916504525,0.0,0.7241244838799218,0.0,1.0,-0.0,1.0,1.0,1.0, 1.0
1030,0.0228,0.132,3.45,0.132,3.45,-0.6897390117326119,0.0,0.7240580748076219,0.0,1.0,-0.0,1.0,1.0,1.0, 1.0
1031,0.0228,0.132,3.45,0.132,3.45,-0.6898300946744931,0.0,0.7239712981060643,0.0,1.0,-0.0,1.0,1.0,1.0, 1.0
1032,0.0228,0.132,3.45,0.132,3.45,-0.6899512561046485,0.0,0.7238558310876676,0.0,1.0,-0.0,1.0,1.0,1.0, 1.0
1033,0.0228,0.132,3.45,0.132,3.45,-0.6901039837923578,0.0,0.7237102262327908,0.0,1.0,-0.0,1.0,1.0,1.0, 1.0
1034,0.0228,0.132,3.45,0.132,3.45,-0.6903055181863716,0.0,0.7235179967087515,0.0,1.0,-0.0,1.0,1.0,1.0, 1.0
1035,0.0228,0.132,3.45,0.132,3.45,-0.6905723497002534,0.0,0.7232633198424145,0.0,1.0,-0.0,1.0,1.0,1.0, 1.0
1036,0.0228,0.132,3.45,0.132,3.45,-0.6909121814686595,0.0,0.7229386955324898,0.0,1.0,-0.0,1.0,1.0,1.0, 1.0
1037,0.0228,0.132,3.45,0.132,3.45,-0.6913427802259572,0.0,0.7225269269926512,0.0,1.0,-0.0,1.0,1.0,1.0, 1.0
1038,0.0228,0.132,3.45,0.132,3.45,-0.6919889759643144,0.0,0.7219080669613407,0.0,1.0,-0.0,1.0,1.0,1.0, 1.0
1039,0.0228,0.132,3.45,0.132,3.45,-0.6932389513704196,0.0,0.7207078161799281,0.0,1.0,-0.0,1.0,1.0,1.0, 1.0
1040,0.0228,0.132,3.45,0.132,3.45,-0.6961038499616823,0.0,0.7179411048745737,0.0,1.0,-0.0,1.0,1.0,1.0, 1.0
1041,0.0228,0.132,3.45,0.132,3.45,-0.6531702107438634,0.0,0.7572111170583916,0.0,1.0,-0.0,1.0,1.0,1.0, 1.0
1042,0.0228,0.132,3.45,0.132,3.45,-0.6531948675103245,0.0,0.7571898474346903,0.0,1.0,-0.0,1.0,1.0,1.0, 1.0
1043,0.0228,0.132,3.45,0.132,3.45,-0.6532518760495097,0.0,0.7571406648951013,0.0,1.0,-0.0,1.0,1.0,1.0, 1.0
1044,0.0228,0.132,3.45,0.132,3.45,-0.6533548435650435,0.0,0.7570518135438932,0.0,1.0,-0.0,1.0,1.0,1.0, 1.0
1045,0.0228,0.132,3.45,0.132,3.45,-0.6535099869139642,0.0,0.7569178931718488,0.0,1.0,-0.0,1.0,1.0,1.0, 1.0
1046,0.0228,0.132,3.45,0.132,3.45,-0.653712636296065,0.0,0.7567428817946349,0.0,1.0,-0.0,1.0,1.0,1.0, 1.0
1047,0.0228,0.132,3.45,0.132,3.45,-0.6539809731762285,0.0,0.7565109957716893,0.0,1.0,-0.0,1.0,1.0,1.0, 1.0
1048,0.0228,0.132,3.45,0.132,3.45,-0.6543347134375992,0.0,0.7562050534018764,0.0,1.0,-0.0,1.0,1.0,1.0, 1.0
1049,0.0228,0.132,3.45,0.132,3.45,-0.654794611808117,0.0,0.7558068644482249,0.0,1.0,-0.0,1.0,1.0,1.0, 1.0
1050,0.0228,0.132,3.45,0.132,3.45,-0.6554047003665391,0.0,0.7552778818007629,0.0,1.0,-0.0,1.0,1.0,1.0, 1.0
1051,0.0228,0.132,3.45,0.132,3.45,-0.6562005142349555,0.0,0.7545865656886425,0.0,1.0,-0.0,1.0,1.0,1.0, 1.0
1052,0.0228,0.132,3.45,0.132,3.45,-0.6572171096849133,0.0,0.7537013140080152,0.0,1.0,-0.0,1.0,1.0,1.0, 1.0
1053,0.0228,0.132,3.45,0.132,3.45,-0.658507837827529,0.0,0.7525738684805053,0.0,1.0,-0.0,1.0,1.0,1.0, 1.0
1054,0.0228,0.132,3.45,0.132,3.45,-0.6603434211959014,0.0,0.7509637581689895,0.0,1.0,-0.0,1.0,1.0,1.0, 1.0
1055,0.0228,0.132,3.45,0.132,3.45,-0.6636953740922378,0.0,0.7480029748661194,0.0,1.0,-0.0,1.0,1.0,1.0, 1.0
1056,0.0228,0.132,3.45,0.132,3.45,-0.670762412213596,0.0,0.7416722904095838,0.0,1.0,-0.0,1.0,1.0,1.0, 1.0
1057,0.0228,0.132,3.45,0.132,3.45,-0.6152170502227023,0.0,0.7883577748175488,0.0,1.0,-0.0,1.0,1.0,1.0, 1.0
1058,0.0228,0.132,3.45,0.132,3.45,-0.6152115551614571,0.0,0.7883620630115464,0.0,1.0,-0.0,1.0,1.0,1.0, 1.0
1059,0.0228,0.132,3.45,0.132,3.45,-0.6152668634853231,0.0,0.7883188991118588,0.0,1.0,-0.0,1.0,1.0,1.0, 1.0
1060,0.0228,0.132,3.45,0.132,3.45,-0.6154013968878821,0.0,0.7882138800531514,0.0,1.0,-0.0,1.0,1.0,1.0, 1.0
1061,0.0228,0.132,3.45,0.132,3.45,-0.6156229323139532,0.0,0.7880408651898516,0.0,1.0,-0.0,1.0,1.0,1.0, 1.0
1062,0.0228,0.132,3.45,0.132,3.45,-0.6159296486355369,0.0,0.7878011601487421,0.0,1.0,-0.0,1.0,1.0,1.0, 1.0
1063,0.0228,0.132,3.45,0.132,3.45,-0.6163379989928657,0.0,0.7874817274054493,0.0,1.0,-0.0,1.0,1.0,1.0, 1.0
1064,0.0228,0.132,3.45,0.132,3.45,-0.6168808237979626,0.0,0.7870565730812158,0.0,1.0,-0.0,1.0,1.0,1.0, 1.0
1065,0.0228,0.132,3.45,0.132,3.45,-0.6176073308830196,0.0,0.7864866081755952,0.0,1.0,-0.0,1.0,1.0,1.0, 1.0
1066,0.0228,0.132,3.45,0.132,3.45,-0.6185872113834273,0.0,0.7857161458904068,0.0,1.0,-0.0,1.0,1.0,1.0, 1.0
1067,0.0228,0.132,3.45,0.132,3.45,-0.619867984573275,0.0,0.7847061116756171,0.0,1.0,-0.0,1.0,1.0,1.0, 1.0
1068,0.0228,0.132,3.45,0.132,3.45,-0.6215065061180252,0.0,0.783409001003285,0.0,1.0,-0.0,1.0,1.0,1.0, 1.0
1069,0.0228,0.132,3.45,0.132,3.45,-0.6235740046289221,0.0,0.7817643255809573,0.0,1.0,-0.0,1.0,1.0,1.0, 1.0
1070,0.0228,0.132,3.45,0.132,3.45,-0.6263674689169145,0.0,0.77952793014915,0.0,1.0,-0.0,1.0,1.0,1.0, 1.0
1071,0.0228,0.132,3.45,0.132,3.45,-0.6310519592844733,0.0,0.7757405653201508,0.0,1.0,-0.0,1.0,1.0,1.0, 1.0
1072,0.0228,0.132,3.45,0.132,3.45,-0.6400360252690971,0.0,0.7683449006518723,0.0,1.0,-0.0,1.0,1.0,1.0, 1.0
1073,0.0228,0.132,3.45,0.132,3.45,-0.5757590211055861,0.0,0.8176194405807247,0.0,1.0,-0.0,1.0,1.0,1.0, 1.0
1074,0.0228,0.132,3.45,0.132,3.45,-0.5756805382375547,0.0,0.8176747017576851,0.0,1.0,-0.0,1.0,1.0,1.0, 1.0
1075,0.0228,0.132,3.45,0.132,3.45,-0.5756906024833766,0.0,0.8176676159738301,0.0,1.0,-0.0,1.0,1.0,1.0, 1.0
1076,0.0228,0.132,3.45,0.132,3.45,-0.5758097224242991,0.0,0.8175837348930394,0.0,1.0,-0.0,1.0,1.0,1.0, 1.0
1077,0.0228,0.132,3.45,0.132,3.45,-0.5760449822461507,0.0,0.817417994926116,0.0,1.0,-0.0,1.0,1.0,1.0, 1.0
1078,0.0228,0.132,3.45,0.132,3.45,-0.5764007904239687,0.0,0.8171671363917078,0.0,1.0,-0.0,1.0,1.0,1.0, 1.0
1079,0.0228,0.132,3.45,0.132,3.45,-0.5768923081902227,0.0,0.8168202156845514,0.0,1.0,-0.0,1.0,1.0,1.0, 1.0
1080,0.0228,0.132,3.45,0.132,3.45,-0.5775671192393819,0.0,0.8163432015846775,0.0,1.0,-0.0,1.0,1.0,1.0, 1.0
1081,0.0228,0.132,3.45,0.132,3.45,-0.5784939631485089,0.0,0.8156866644740072,0.0,1.0,-0.0,1.0,1.0,1.0, 1.0
1082,0.0228,0.132,3.45,0.132,3.45,-0.5797656820826403,0.0,0.8147832557676004,0.0,1.0,-0.0,1.0,1.0,1.0, 1.0
1083,0.0228,0.132,3.45,0.132,3.45,-0.5814559649657411,0.0,0.8135778763005781,0.0,1.0,-0.0,1.0,1.0,1.0, 1.0
1084,0.0228,0.132,3.45,0.132,3.45,-0.583627882683073,0.0,0.8120212402116543,0.0,1.0,-0.0,1.0,1.0,1.0, 1.0
1085,0.0228,0.132,3.45,0.132,3.45,-0.5863474789757803,0.0,0.810059648358531,0.0,1.0,-0.0,1.0,1.0,1.0, 1.0
1086,0.0228,0.132,3.45,0.132,3.45,-0.5899183742743971,0.0,0.8074628856445679,0.0,1.0,-0.0,1.0,1.0,1.0, 1.0
1087,0.0228,0.132,3.45,0.132,3.45,-0.595490536442801,0.0,0.803362322372082,0.0,1.0,-0.0,1.0,1.0,1.0, 1.0
1088,0.0228,0.132,3.45,0.132,3.45,-0.6055088138475982,0.0,0.7958385994363899,0.0,1.0,-0.0,1.0,1.0,1.0, 1.0
1089,0.0228,0.132,3.45,0.132,3.45,-0.5348897299706201,0.0,0.8449218761352772,0.0,1.0,-0.0,1.0,1.0,1.0, 1.0
1090,0.0228,0.132,3.45,0.132,3.45,-0.5346997153186767,0.0,0.8450421376701438,0.0,1.0,-0.0,1.0,1.0,1.0, 1.0
1091,0.0228,0.132,3.45,0.132,3.45,-0.5346226145715286,0.0,0.8450909181790458,0.0,1.0,-0.0,1.0,1.0,1.0, 1.0
1092,0.0228,0.132,3.45,0.132,3.45,-0.5346785558397249,0.0,0.8450555259420213,0.0,1.0,-0.0,1.0,1.0,1.0, 1.0
1093,0.0228,0.132,3.45,0.132,3.45,-0.5348697082150631,0.0,0.8449345508581912,0.0,1.0,-0.0,1.0,1.0,1.0, 1.0
1094,0.0228,0.132,3.45,0.132,3.45,-0.5352107824088059,0.0,0.8447185438910134,0.0,1.0,-0.0,1.0,1.0,1.0, 1.0
1095,0.0228,0.132,3.45,0.132,3.45,-0.5357281155654379,0.0,0.844390541273826,0.0,1.0,-0.0,1.0,1.0,1.0, 1.0
1096,0.0228,0.132,3.45,0.132,3.45,-0.5364758075168075,0.0,0.8439156995513174,0.0,1.0,-0.0,1.0,1.0,1.0, 1.0
1097,0.0228,0.132,3.45,0.132,3.45,-0.5375390564073871,0.0,0.8432388527793628,0.0,1.0,-0.0,1.0,1.0,1.0, 1.0
1098,0.0228,0.132,3.45,0.132,3.45,-0.5390191871160039,0.0,0.8422934856217293,0.0,1.0,-0.0,1.0,1.0,1.0, 1.0
1099,0.0228,0.132,3.45,0.132,3.45,-0.5410177578626371,0.0,0.8410111685805873,0.0,1.0,-0.0,1.0,1.0,1.0, 1.0
1100,0.0228,0.132,3.45,0.132,3.45,-0.5436136666173884,0.0,0.8393355595152627,0.0,1.0,-0.0,1.0,1.0,1.0, 1.0
1101,0.0228,0.132,3.45,0.132,3.45,-0.546858135032338,0.0,0.8372252863769424,0.0,1.0,-0.0,1.0,1.0,1.0, 1.0
1102,0.0228,0.132,3.45,0.132,3.45,-0.5510342474308668,0.0,0.834482629033282,0.0,1.0,-0.0,1.0,1.0,1.0, 1.0
1103,0.0228,0.132,3.45,0.132,3.45,-0.5572653941009575,0.0,0.8303344389687234,0.0,1.0,-0.0,1.0,1.0,1.0, 1.0
1104,0.0228,0.132,3.45,0.132,3.45,-0.5679541462278277,0.0,0.8230601969373925,0.0,1.0,-0.0,1.0,1.0,1.0, 1.0
1105,0.0228,0.132,3.45,0.132,3.45,-0.49271023256759133,0.0,0.8701934421283524,0.0,1.0,-0.0,1.0,1.0,1.0, 1.0
1106,0.0228,0.132,3.45,0.132,3.45,-0.4923742184752315,0.0,0.8703836102437276,0.0,1.0,-0.0,1.0,1.0,1.0, 1.0
1107,0.0228,0.132,3.45,0.132,3.45,-0.4921706129317394,0.0,0.8704987580498872,0.0,1.0,-0.0,1.0,1.0,1.0, 1.0
1108,0.0228,0.132,3.45,0.132,3.45,-0.4921236236108092,0.0,0.8705253236317521,0.0,1.0,-0.0,1.0,1.0,1.0, 1.0
1109,0.0228,0.132,3.45,0.132,3.45,-0.4922355159431658,0.0,0.8704620593938401,0.0,1.0,-0.0,1.0,1.0,1.0, 1.0
1110,0.0228,0.132,3.45,0.132,3.45,-0.49251667795081744,0.0,0.8703030058205538,0.0,1.0,-0.0,1.0,1.0,1.0, 1.0
1111,0.0228,0.132,3.45,0.132,3.45,-0.4930026680301219,0.0,0.8700277980129035,0.0,1.0,-0.0,1.0,1.0,1.0, 1.0
1112,0.0228,0.132,3.45,0.132,3.45,-0.49375817027294416,0.0,0.8695992578703792,0.0,1.0,-0.0,1.0,1.0,1.0, 1.0
1113,0.0228,0.132,3.45,0.132,3.45,-0.4948812232453638,0.0,0.8689606290731314,0.0,1.0,-0.0,1.0,1.0,1.0, 1.0
1114,0.0228,0.132,3.45,0.132,3.45,-0.49649026020870285,0.0,0.8680422924707611,0.0,1.0,-0.0,1.0,1.0,1.0, 1.0
1115,0.0228,0.132,3.45,0.132,3.45,-0.498708700100629,0.0,0.8667696536242723,0.0,1.0,-0.0,1.0,1.0,1.0, 1.0
1116,0.0228,0.132,3.45,0.132,3.45,-0.501608773103618,0.0,0.8650945836990792,0.0,1.0,-0.0,1.0,1.0,1.0, 1.0
1117,0.0228,0.132,3.45,0.132,3.45,-0.5052349077132098,0.0,0.8629818584582323,0.0,1.0,-0.0,1.0,1.0,1.0, 1.0
1118,0.0228,0.132,3.45,0.132,3.45,-0.509850267785285,0.0,0.8602631599919139,0.0,1.0,-0.0,1.0,1.0,1.0, 1.0
1119,0.0228,0.132,3.45,0.132,3.45,-0.516546422751402,0.0,0.8562591857275049,0.0,1.0,-0.0,1.0,1.0,1.0, 1.0
1120,0.0228,0.132,3.45,0.132,3.45,-0.5276741050052245,0.0,0.8494469017583944,0.0,1.0,-0.0,1.0,1.0,1.0, 1.0
1121,0.0228,0.132,3.45,0.132,3.45,-0.44933117157190744,0.0,0.8933652658648741,0.0,1.0,-0.0,1.0,1.0,1.0, 1.0
1122,0.0228,0.132,3.45,0.132,3.45,-0.44883174335613346,0.0,0.8936162857490311,0.0,1.0,-0.0,1.0,1.0,1.0, 1.0
1123,0.0228,0.132,3.45,0.132,3.45,-0.4484738684171236,0.0,0.8937959439083288,0.0,1.0,-0.0,1.0,1.0,1.0, 1.0
1124,0.0228,0.132,3.45,0.132,3.45,-0.4482915424236109,0.0,0.8938874050972303,0.0,1.0,-0.0,1.0,1.0,1.0, 1.0
1125,0.0228,0.132,3.45,0.132,3.45,-0.4482887852421107,0.0,0.8938887878400493,0.0,1.0,-0.0,1.0,1.0,1.0, 1.0
1126,0.0228,0.132,3.45,0.132,3.45,-0.44847619172280323,0.0,0.8937947781553724,0.0,1.0,-0.0,1.0,1.0,1.0, 1.0
1127,0.0228,0.132,3.45,0.132,3.45,-0.4488874346433596,0.0,0.8935883118188731,0.0,1.0,-0.0,1.0,1.0,1.0, 1.0
1128,0.0228,0.132,3.45,0.132,3.45,-0.44959547542675904,0.0,0.8932322813668271,0.0,1.0,-0.0,1.0,1.0,1.0, 1.0
1129,0.0228,0.132,3.45,0.132,3.45,-0.45071292824801057,0.0,0.8926689511291988,0.0,1.0,-0.0,1.0,1.0,1.0, 1.0
