e_no,c,k1,k2,k3,k4,ax,ay,az,bx,by,bz,pvol,m_g,m_c
1,2,0.5,4,0.5,4,0.06340455216254648,0.0,0.997987907123662,-0.0,1.0,0.0,1.0,1.0,1.0, 1.0
2,2,0.5,4,0.5,4,0.18812444408082257,0.0,0.982145199824996,-0.0,1.0,0.0,1.0,1.0,1.0, 1.0
3,2,0.5,4,0.5,4,0.30797606888296203,0.0,0.9513941039313818,-0.0,1.0,0.0,1.0,1.0,1.0, 1.0
4,2,0.5,4,0.5,4,0.4203180182601616,0.0,0.9073768586016785,-0.0,1.0,0.0,1.0,1.0,1.0, 1.0
5,2,0.5,4,0.5,4,0.5220586075555411,0.0,0.8529096143655372,-0.0,1.0,0.0,1.0,1.0,1.0, 1.0
6,2,0.5,4,0.5,4,0.6095826875393922,0.0,0.792722490567949,-0.0,1.0,0.0,1.0,1.0,1.0, 1.0
7,2,0.5,4,0.5,4,0.6784257651526169,0.0,0.7346689602651566,-0.0,1.0,0.0,1.0,1.0,1.0, 1.0
8,2,0.5,4,0.5,4,0.059131800212602524,0.0,0.9982501841740962,-0.0,1.0,0.0,1.0,1.0,1.0, 1.0
9,2,0.5,4,0.5,4,0.17629352278211743,0.0,0.9843376421863947,-0.0,1.0,0.0,1.0,1.0,1.0, 1.0
10,2,0.5,4,0.5,4,0.29061198985017633,0.0,0.9568409854073564,-0.0,1.0,0.0,1.0,1.0,1.0, 1.0
11,2,0.5,4,0.5,4,0.3998957403974421,0.0,0.916560634552882,-0.0,1.0,0.0,1.0,1.0,1.0, 1.0
12,2,0.5,4,0.5,4,0.5013811765915259,0.0,0.8652265112441349,-0.0,1.0,0.0,1.0,1.0,1.0, 1.0
13,2,0.5,4,0.5,4,0.5924200053304064,0.0,0.8056292803047325,-0.0,1.0,0.0,1.0,1.0,1.0, 1.0
14,2,0.5,4,0.5,4,0.6714735837130139,0.0,0.7410284922832602,-0.0,1.0,0.0,1.0,1.0,1.0, 1.0
15,2,0.5,4,0.5,4,0.05729021796938181,0.0,0.9983575666688869,-0.0,1.0,0.0,1.0,1.0,1.0, 1.0
16,2,0.5,4,0.5,4,0.17126580337404865,0.0,0.9852248599150559,-0.0,1.0,0.0,1.0,1.0,1.0, 1.0
17,2,0.5,4,0.5,4,0.2832210515595662,0.0,0.9590546574379865,-0.0,1.0,0.0,1.0,1.0,1.0, 1.0
18,2,0.5,4,0.5,4,0.3911957131567549,0.0,0.9203075105679502,-0.0,1.0,0.0,1.0,1.0,1.0, 1.0
19,2,0.5,4,0.5,4,0.49270865832531296,0.0,0.8701943334745808,-0.0,1.0,0.0,1.0,1.0,1.0, 1.0
20,2,0.5,4,0.5,4,0.5855952910594603,0.0,0.8106035745597142,-0.0,1.0,0.0,1.0,1.0,1.0, 1.0
21,2,0.5,4,0.5,4,0.6688677348594496,0.0,0.74338143188002,-0.0,1.0,0.0,1.0,1.0,1.0, 1.0
22,2,0.5,4,0.5,4,0.05643881055720819,0.0,0.9984060600090966,-0.0,1.0,0.0,1.0,1.0,1.0, 1.0
23,2,0.5,4,0.5,4,0.16899561412283967,0.0,0.9856168030260261,-0.0,1.0,0.0,1.0,1.0,1.0, 1.0
24,2,0.5,4,0.5,4,0.2798522118783463,0.0,0.9600430925259538,-0.0,1.0,0.0,1.0,1.0,1.0, 1.0
25,2,0.5,4,0.5,4,0.3871839315994332,0.0,0.922002496260832,-0.0,1.0,0.0,1.0,1.0,1.0, 1.0
26,2,0.5,4,0.5,4,0.48877165952363016,0.0,0.8724117518961539,-0.0,1.0,0.0,1.0,1.0,1.0, 1.0
27,2,0.5,4,0.5,4,0.5826415224618359,0.0,0.8127292638408895,-0.0,1.0,0.0,1.0,1.0,1.0, 1.0
28,2,0.5,4,0.5,4,0.6677867965702433,0.0,0.7443526008058629,-0.0,1.0,0.0,1.0,1.0,1.0, 1.0
29,2,0.5,4,0.5,4,0.056003830798066714,0.0,0.9984305538874206,-0.0,1.0,0.0,1.0,1.0,1.0, 1.0
30,2,0.5,4,0.5,4,0.16783883130505411,0.0,0.9858144484162086,-0.0,1.0,0.0,1.0,1.0,1.0, 1.0
31,2,0.5,4,0.5,4,0.27804550639118153,0.0,0.9605679030530176,-0.0,1.0,0.0,1.0,1.0,1.0, 1.0
32,2,0.5,4,0.5,4,0.3849092878198852,0.0,0.922954408489384,-0.0,1.0,0.0,1.0,1.0,1.0, 1.0
33,2,0.5,4,0.5,4,0.48646447603892545,0.0,0.8737003568456257,-0.0,1.0,0.0,1.0,1.0,1.0, 1.0
34,2,0.5,4,0.5,4,0.5809247145976061,0.0,0.8139572937013895,-0.0,1.0,0.0,1.0,1.0,1.0, 1.0
35,2,0.5,4,0.5,4,0.6671778776212105,0.0,0.7448984357701774,-0.0,1.0,0.0,1.0,1.0,1.0, 1.0
36,2,0.5,4,0.5,4,0.05584930829547858,0.0,0.9984392093477282,-0.0,1.0,0.0,1.0,1.0,1.0, 1.0
37,2,0.5,4,0.5,4,0.16736443266852366,0.0,0.9858950992258473,-0.0,1.0,0.0,1.0,1.0,1.0, 1.0
38,2,0.5,4,0.5,4,0.2771443154336517,0.0,0.9608283033002372,-0.0,1.0,0.0,1.0,1.0,1.0, 1.0
39,2,0.5,4,0.5,4,0.3835948587893335,0.0,0.9235014804050892,-0.0,1.0,0.0,1.0,1.0,1.0, 1.0
40,2,0.5,4,0.5,4,0.4850034388947692,0.0,0.8745122436308412,-0.0,1.0,0.0,1.0,1.0,1.0, 1.0
41,2,0.5,4,0.5,4,0.5797802210525989,0.0,0.8147729102493525,-0.0,1.0,0.0,1.0,1.0,1.0, 1.0
42,2,0.5,4,0.5,4,0.6667635418196043,0.0,0.745269333395771,-0.0,1.0,0.0,1.0,1.0,1.0, 1.0
43,2,0.5,4,0.5,4,0.05595122445965122,0.0,0.9984335032847533,-0.0,1.0,0.0,1.0,1.0,1.0, 1.0
44,2,0.5,4,0.5,4,0.16739020444092123,0.0,0.9858907238924742,-0.0,1.0,0.0,1.0,1.0,1.0, 1.0
45,2,0.5,4,0.5,4,0.276858649382871,0.0,0.9609106557125343,-0.0,1.0,0.0,1.0,1.0,1.0, 1.0
46,2,0.5,4,0.5,4,0.3829091021664966,0.0,0.9237860247254488,-0.0,1.0,0.0,1.0,1.0,1.0, 1.0
47,2,0.5,4,0.5,4,0.4840831184527996,0.0,0.8750220193966621,-0.0,1.0,0.0,1.0,1.0,1.0, 1.0
48,2,0.5,4,0.5,4,0.5789971199545072,0.0,0.8153295867833975,-0.0,1.0,0.0,1.0,1.0,1.0, 1.0
49,2,0.5,4,0.5,4,0.666467684404057,0.0,0.7455339198487849,-0.0,1.0,0.0,1.0,1.0,1.0, 1.0
50,2,0.5,4,0.5,4,0.06287749894584463,0.0,0.9980212523420107,-0.0,1.0,0.0,1.0,1.0,1.0, 1.0
51,2,0.5,4,0.5,4,0.1867025006389746,0.0,0.9824164983626616,-0.0,1.0,0.0,1.0,1.0,1.0, 1.0
52,2,0.5,4,0.5,4,0.30611860339921776,0.0,0.9519933826728589,-0.0,1.0,0.0,1.0,1.0,1.0, 1.0
53,2,0.5,4,0.5,4,0.41848531787421256,0.0,0.9082235620835432,-0.0,1.0,0.0,1.0,1.0,1.0, 1.0
54,2,0.5,4,0.5,4,0.5206081017435569,0.0,0.8537957626967765,-0.0,1.0,0.0,1.0,1.0,1.0, 1.0
55,2,0.5,4,0.5,4,0.6087358397799195,0.0,0.7933729749414434,-0.0,1.0,0.0,1.0,1.0,1.0, 1.0
56,2,0.5,4,0.5,4,0.6781736148074737,0.0,0.7349017268852783,-0.0,1.0,0.0,1.0,1.0,1.0, 1.0
57,2,0.5,4,0.5,4,0.058834687678712846,0.0,0.9982677393994801,-0.0,1.0,0.0,1.0,1.0,1.0, 1.0
58,2,0.5,4,0.5,4,0.1755078139129835,0.0,0.984478037975193,-0.0,1.0,0.0,1.0,1.0,1.0, 1.0
59,2,0.5,4,0.5,4,0.28957807274458397,0.0,0.9571543970465436,-0.0,1.0,0.0,1.0,1.0,1.0, 1.0
60,2,0.5,4,0.5,4,0.39884705936552295,0.0,0.9170174607037072,-0.0,1.0,0.0,1.0,1.0,1.0, 1.0
61,2,0.5,4,0.5,4,0.5005125304411235,0.0,0.8657292919102503,-0.0,1.0,0.0,1.0,1.0,1.0, 1.0
62,2,0.5,4,0.5,4,0.5918846014339042,0.0,0.8060227159239547,-0.0,1.0,0.0,1.0,1.0,1.0, 1.0
63,2,0.5,4,0.5,4,0.6713062242590484,0.0,0.7411801085236033,-0.0,1.0,0.0,1.0,1.0,1.0, 1.0
64,2,0.5,4,0.5,4,0.05723916998815784,0.0,0.998360494720753,-0.0,1.0,0.0,1.0,1.0,1.0, 1.0
65,2,0.5,4,0.5,4,0.1711187190658449,0.0,0.9852504168916979,-0.0,1.0,0.0,1.0,1.0,1.0, 1.0
66,2,0.5,4,0.5,4,0.2830380541067361,0.0,0.9591086799354243,-0.0,1.0,0.0,1.0,1.0,1.0, 1.0
67,2,0.5,4,0.5,4,0.39102936122695786,0.0,0.9203782041413395,-0.0,1.0,0.0,1.0,1.0,1.0, 1.0
68,2,0.5,4,0.5,4,0.4925893040952771,0.0,0.8702619016657748,-0.0,1.0,0.0,1.0,1.0,1.0, 1.0
69,2,0.5,4,0.5,4,0.5855355368029251,0.0,0.8106467388085333,-0.0,1.0,0.0,1.0,1.0,1.0, 1.0
70,2,0.5,4,0.5,4,0.6688528952328263,0.0,0.7433947837714937,-0.0,1.0,0.0,1.0,1.0,1.0, 1.0
71,2,0.5,4,0.5,4,0.05656558428060286,0.0,0.998398885553762,-0.0,1.0,0.0,1.0,1.0,1.0, 1.0
72,2,0.5,4,0.5,4,0.1692844290206683,0.0,0.9855672387468782,-0.0,1.0,0.0,1.0,1.0,1.0, 1.0
73,2,0.5,4,0.5,4,0.28023889212503356,0.0,0.9599302908756102,-0.0,1.0,0.0,1.0,1.0,1.0, 1.0
74,2,0.5,4,0.5,4,0.3876019857199928,0.0,0.9218268279161322,-0.0,1.0,0.0,1.0,1.0,1.0, 1.0
75,2,0.5,4,0.5,4,0.48914723059413445,0.0,0.8722012306813655,-0.0,1.0,0.0,1.0,1.0,1.0, 1.0
76,2,0.5,4,0.5,4,0.5829048145190149,0.0,0.8125404465074664,-0.0,1.0,0.0,1.0,1.0,1.0, 1.0
77,2,0.5,4,0.5,4,0.6678799097428288,0.0,0.7442690549538593,-0.0,1.0,0.0,1.0,1.0,1.0, 1.0
78,2,0.5,4,0.5,4,0.056192812420503405,0.0,0.9984199356144058,-0.0,1.0,0.0,1.0,1.0,1.0, 1.0
79,2,0.5,4,0.5,4,0.16827003683933014,0.0,0.9857409369109567,-0.0,1.0,0.0,1.0,1.0,1.0, 1.0
80,2,0.5,4,0.5,4,0.27860774726882476,0.0,0.9604049787260532,-0.0,1.0,0.0,1.0,1.0,1.0, 1.0
81,2,0.5,4,0.5,4,0.385497040236543,0.0,0.922709072226379,-0.0,1.0,0.0,1.0,1.0,1.0, 1.0
82,2,0.5,4,0.5,4,0.486979040588679,0.0,0.8734136557366904,-0.0,1.0,0.0,1.0,1.0,1.0, 1.0
83,2,0.5,4,0.5,4,0.5812735655210889,0.0,0.8137082044728321,-0.0,1.0,0.0,1.0,1.0,1.0, 1.0
84,2,0.5,4,0.5,4,0.6672965684587089,0.0,0.7447921117487964,-0.0,1.0,0.0,1.0,1.0,1.0, 1.0
85,2,0.5,4,0.5,4,0.056002507900099065,0.0,0.9984306280903542,-0.0,1.0,0.0,1.0,1.0,1.0, 1.0
86,2,0.5,4,0.5,4,0.1677037220460532,0.0,0.9858374417782578,-0.0,1.0,0.0,1.0,1.0,1.0, 1.0
87,2,0.5,4,0.5,4,0.27757881202754814,0.0,0.9607028693167181,-0.0,1.0,0.0,1.0,1.0,1.0, 1.0
88,2,0.5,4,0.5,4,0.3840429254571257,0.0,0.9233152394530986,-0.0,1.0,0.0,1.0,1.0,1.0, 1.0
89,2,0.5,4,0.5,4,0.4853922423987533,0.0,0.8742965006330004,-0.0,1.0,0.0,1.0,1.0,1.0, 1.0
90,2,0.5,4,0.5,4,0.580043202247827,0.0,0.8145857128173107,-0.0,1.0,0.0,1.0,1.0,1.0, 1.0
91,2,0.5,4,0.5,4,0.6668539970892332,0.0,0.7451883966931537,-0.0,1.0,0.0,1.0,1.0,1.0, 1.0
92,2,0.5,4,0.5,4,0.056010486470213436,0.0,0.9984301805361104,-0.0,1.0,0.0,1.0,1.0,1.0, 1.0
93,2,0.5,4,0.5,4,0.16751522855722942,0.0,0.9858694884219813,-0.0,1.0,0.0,1.0,1.0,1.0, 1.0
94,2,0.5,4,0.5,4,0.2770170449148573,0.0,0.9608650044759877,-0.0,1.0,0.0,1.0,1.0,1.0, 1.0
95,2,0.5,4,0.5,4,0.38307107911336513,0.0,0.9237188686753789,-0.0,1.0,0.0,1.0,1.0,1.0, 1.0
96,2,0.5,4,0.5,4,0.4842202254031403,0.0,0.8749461545206837,-0.0,1.0,0.0,1.0,1.0,1.0, 1.0
97,2,0.5,4,0.5,4,0.5790914313124809,0.0,0.8152626044290652,-0.0,1.0,0.0,1.0,1.0,1.0, 1.0
98,2,0.5,4,0.5,4,0.6665023194641415,0.0,0.7455029564991136,-0.0,1.0,0.0,1.0,1.0,1.0, 1.0
99,2,0.5,4,0.5,4,0.9974597613010975,0.0,0.07123218784480424,-0.0,1.0,0.0,1.0,1.0,1.0, 1.0
100,2,0.5,4,0.5,4,0.9776965414357361,0.0,0.2100225532284567,-0.0,1.0,0.0,1.0,1.0,1.0, 1.0
101,2,0.5,4,0.5,4,0.9402517155570301,0.0,0.3404801189380401,-0.0,1.0,0.0,1.0,1.0,1.0, 1.0
102,2,0.5,4,0.5,4,0.8884091047090673,0.0,0.45905257070409006,-0.0,1.0,0.0,1.0,1.0,1.0, 1.0
103,2,0.5,4,0.5,4,0.8268701659023426,0.0,0.5623928597880956,-0.0,1.0,0.0,1.0,1.0,1.0, 1.0
104,2,0.5,4,0.5,4,0.7626522146947983,0.0,0.6468087811873918,-0.0,1.0,0.0,1.0,1.0,1.0, 1.0
105,2,0.5,4,0.5,4,0.7072496983145056,0.0,0.7069638351670054,-0.0,1.0,0.0,1.0,1.0,1.0, 1.0
106,2,0.5,4,0.5,4,0.9963734556557999,0.0,0.08508781854366451,-0.0,1.0,0.0,1.0,1.0,1.0, 1.0
107,2,0.5,4,0.5,4,0.9687908194861157,0.0,0.24787970485584426,-0.0,1.0,0.0,1.0,1.0,1.0, 1.0
108,2,0.5,4,0.5,4,0.9187895020754052,0.0,0.39474783200928276,-0.0,1.0,0.0,1.0,1.0,1.0, 1.0
109,2,0.5,4,0.5,4,0.8533415593401419,0.0,0.5213522639280808,-0.0,1.0,0.0,1.0,1.0,1.0, 1.0
110,2,0.5,4,0.5,4,0.780118588314192,0.0,0.6256316713264061,-0.0,1.0,0.0,1.0,1.0,1.0, 1.0
111,2,0.5,4,0.5,4,0.7078130286413461,0.0,0.7063998276369869,-0.0,1.0,0.0,1.0,1.0,1.0, 1.0
112,2,0.5,4,0.5,4,0.6474711271693114,0.0,0.7620899812240687,-0.0,1.0,0.0,1.0,1.0,1.0, 1.0
113,2,0.5,4,0.5,4,0.9943387060007486,0.0,0.10625694212029971,-0.0,1.0,0.0,1.0,1.0,1.0, 1.0
114,2,0.5,4,0.5,4,0.9527935588702983,0.0,0.3036188962750368,-0.0,1.0,0.0,1.0,1.0,1.0, 1.0
115,2,0.5,4,0.5,4,0.8823770504403864,0.0,0.4705430276352247,-0.0,1.0,0.0,1.0,1.0,1.0, 1.0
116,2,0.5,4,0.5,4,0.797390760691223,0.0,0.6034633168339834,-0.0,1.0,0.0,1.0,1.0,1.0, 1.0
117,2,0.5,4,0.5,4,0.7095899443124033,0.0,0.7046148670945857,-0.0,1.0,0.0,1.0,1.0,1.0, 1.0
118,2,0.5,4,0.5,4,0.6285295693659517,0.0,0.7777856905553425,-0.0,1.0,0.0,1.0,1.0,1.0, 1.0
119,2,0.5,4,0.5,4,0.5637092848896592,0.0,0.8259732696214745,-0.0,1.0,0.0,1.0,1.0,1.0, 1.0
120,2,0.5,4,0.5,4,0.9903244680053526,0.0,0.13877120764018555,-0.0,1.0,0.0,1.0,1.0,1.0, 1.0
121,2,0.5,4,0.5,4,0.9234132468538737,0.0,0.3838072114158184,-0.0,1.0,0.0,1.0,1.0,1.0, 1.0
122,2,0.5,4,0.5,4,0.8217636781003841,0.0,0.5698284455473666,-0.0,1.0,0.0,1.0,1.0,1.0, 1.0
123,2,0.5,4,0.5,4,0.7130305076400608,0.0,0.7011330081907122,-0.0,1.0,0.0,1.0,1.0,1.0, 1.0
124,2,0.5,4,0.5,4,0.6120332988869001,0.0,0.7908319929375761,-0.0,1.0,0.0,1.0,1.0,1.0, 1.0
125,2,0.5,4,0.5,4,0.5261433313697608,0.0,0.8503959047732591,-0.0,1.0,0.0,1.0,1.0,1.0, 1.0
126,2,0.5,4,0.5,4,0.4611623177273231,0.0,0.8873157931133446,-0.0,1.0,0.0,1.0,1.0,1.0, 1.0
127,2,0.5,4,0.5,4,0.9808233208324237,0.0,0.19489898232483557,-0.0,1.0,0.0,1.0,1.0,1.0, 1.0
128,2,0.5,4,0.5,4,0.8629548272758905,0.0,0.5052810763142015,-0.0,1.0,0.0,1.0,1.0,1.0, 1.0
129,2,0.5,4,0.5,4,0.7165384403285044,0.0,0.6975476066417218,-0.0,1.0,0.0,1.0,1.0,1.0, 1.0
130,2,0.5,4,0.5,4,0.5868089640716035,0.0,0.8097254100528224,-0.0,1.0,0.0,1.0,1.0,1.0, 1.0
131,2,0.5,4,0.5,4,0.48200814483990806,0.0,0.8761667354493609,-0.0,1.0,0.0,1.0,1.0,1.0, 1.0
132,2,0.5,4,0.5,4,0.400919881040035,0.0,0.9161131201914118,-0.0,1.0,0.0,1.0,1.0,1.0, 1.0
133,2,0.5,4,0.5,4,0.3431284350025491,0.0,0.9392884951348556,-0.0,1.0,0.0,1.0,1.0,1.0, 1.0
134,2,0.5,4,0.5,4,0.9488494381499128,0.0,0.3157289085950076,-0.0,1.0,0.0,1.0,1.0,1.0, 1.0
135,2,0.5,4,0.5,4,0.716567973539463,0.0,0.6975172680998998,-0.0,1.0,0.0,1.0,1.0,1.0, 1.0
136,2,0.5,4,0.5,4,0.526889036291525,0.0,0.8499340818179891,-0.0,1.0,0.0,1.0,1.0,1.0, 1.0
137,2,0.5,4,0.5,4,0.4007513891061312,0.0,0.9161868390942461,-0.0,1.0,0.0,1.0,1.0,1.0, 1.0
138,2,0.5,4,0.5,4,0.3143377934999197,0.0,0.9493111984895164,-0.0,1.0,0.0,1.0,1.0,1.0, 1.0
139,2,0.5,4,0.5,4,0.2534575508468594,0.0,0.9673465097464877,-0.0,1.0,0.0,1.0,1.0,1.0, 1.0
140,2,0.5,4,0.5,4,0.21237390033429696,0.0,0.9771884805178568,-0.0,1.0,0.0,1.0,1.0,1.0, 1.0
141,2,0.5,4,0.5,4,0.711203047549249,0.0,0.702986646499534,-0.0,1.0,0.0,1.0,1.0,1.0, 1.0
142,2,0.5,4,0.5,4,0.32799670001012743,0.0,0.9446788686016357,-0.0,1.0,0.0,1.0,1.0,1.0, 1.0
143,2,0.5,4,0.5,4,0.2051432794293606,0.0,0.9787319525309099,-0.0,1.0,0.0,1.0,1.0,1.0, 1.0
144,2,0.5,4,0.5,4,0.1460742189482526,0.0,0.9892736338135459,-0.0,1.0,0.0,1.0,1.0,1.0, 1.0
145,2,0.5,4,0.5,4,0.11072346943614492,0.0,0.9938512531138767,-0.0,1.0,0.0,1.0,1.0,1.0, 1.0
146,2,0.5,4,0.5,4,0.08737100974185553,0.0,0.9961758412332075,-0.0,1.0,0.0,1.0,1.0,1.0, 1.0
147,2,0.5,4,0.5,4,0.07218802336910293,0.0,0.9973910413083035,-0.0,1.0,0.0,1.0,1.0,1.0, 1.0
148,2,0.5,4,0.5,4,0.9975091393029758,0.0,0.07053734476882578,-0.0,1.0,0.0,1.0,1.0,1.0, 1.0
149,2,0.5,4,0.5,4,0.9781225171806845,0.0,0.20802966467338616,-0.0,1.0,0.0,1.0,1.0,1.0, 1.0
150,2,0.5,4,0.5,4,0.9411901451450057,0.0,0.3378773604163544,-0.0,1.0,0.0,1.0,1.0,1.0, 1.0
151,2,0.5,4,0.5,4,0.8896603801309684,0.0,0.45662282906707685,-0.0,1.0,0.0,1.0,1.0,1.0, 1.0
152,2,0.5,4,0.5,4,0.8280193626405834,0.0,0.5606995051650054,-0.0,1.0,0.0,1.0,1.0,1.0, 1.0
153,2,0.5,4,0.5,4,0.7632963744321223,0.0,0.6460484848513905,-0.0,1.0,0.0,1.0,1.0,1.0, 1.0
154,2,0.5,4,0.5,4,0.7072737148898284,0.0,0.7069398080642664,-0.0,1.0,0.0,1.0,1.0,1.0, 1.0
155,2,0.5,4,0.5,4,0.9964361217150962,0.0,0.084350787437807,-0.0,1.0,0.0,1.0,1.0,1.0, 1.0
156,2,0.5,4,0.5,4,0.9693444578440975,0.0,0.24570576315368095,-0.0,1.0,0.0,1.0,1.0,1.0, 1.0
157,2,0.5,4,0.5,4,0.9199490091381819,0.0,0.3920380346161289,-0.0,1.0,0.0,1.0,1.0,1.0, 1.0
158,2,0.5,4,0.5,4,0.854721822229538,0.0,0.5190863190304847,-0.0,1.0,0.0,1.0,1.0,1.0, 1.0
159,2,0.5,4,0.5,4,0.7811153287741764,0.0,0.6243867736859984,-0.0,1.0,0.0,1.0,1.0,1.0, 1.0
160,2,0.5,4,0.5,4,0.7079849992219651,0.0,0.7062274710577846,-0.0,1.0,0.0,1.0,1.0,1.0, 1.0
161,2,0.5,4,0.5,4,0.6468649826047612,0.0,0.762604546458872,-0.0,1.0,0.0,1.0,1.0,1.0, 1.0
162,2,0.5,4,0.5,4,0.9944137863673128,0.0,0.10555198474033636,-0.0,1.0,0.0,1.0,1.0,1.0, 1.0
163,2,0.5,4,0.5,4,0.9533896395959635,0.0,0.3017419346247364,-0.0,1.0,0.0,1.0,1.0,1.0, 1.0
164,2,0.5,4,0.5,4,0.8834716689981092,0.0,0.46848458894364414,-0.0,1.0,0.0,1.0,1.0,1.0, 1.0
165,2,0.5,4,0.5,4,0.7984461748106999,0.0,0.6020661972990686,-0.0,1.0,0.0,1.0,1.0,1.0, 1.0
166,2,0.5,4,0.5,4,0.7099464435367742,0.0,0.7042556689935028,-0.0,1.0,0.0,1.0,1.0,1.0, 1.0
167,2,0.5,4,0.5,4,0.6278687703603185,0.0,0.7783192193478339,-0.0,1.0,0.0,1.0,1.0,1.0, 1.0
168,2,0.5,4,0.5,4,0.5623053524275018,0.0,0.826929676956501,-0.0,1.0,0.0,1.0,1.0,1.0, 1.0
169,2,0.5,4,0.5,4,0.9904087382681447,0.0,0.1381684883108357,-0.0,1.0,0.0,1.0,1.0,1.0, 1.0
170,2,0.5,4,0.5,4,0.923816830129486,0.0,0.3828347742427643,-0.0,1.0,0.0,1.0,1.0,1.0, 1.0
171,2,0.5,4,0.5,4,0.8221859991354178,0.0,0.5692189234606444,-0.0,1.0,0.0,1.0,1.0,1.0, 1.0
172,2,0.5,4,0.5,4,0.7130656390558706,0.0,0.701097278840706,-0.0,1.0,0.0,1.0,1.0,1.0, 1.0
173,2,0.5,4,0.5,4,0.6112957782392325,0.0,0.7914022185380142,-0.0,1.0,0.0,1.0,1.0,1.0, 1.0
174,2,0.5,4,0.5,4,0.5245311304042487,0.0,0.8513912691805343,-0.0,1.0,0.0,1.0,1.0,1.0, 1.0
175,2,0.5,4,0.5,4,0.4590902071197246,0.0,0.8883896564721857,-0.0,1.0,0.0,1.0,1.0,1.0, 1.0
176,2,0.5,4,0.5,4,0.9809298140187092,0.0,0.1943622905020945,-0.0,1.0,0.0,1.0,1.0,1.0, 1.0
177,2,0.5,4,0.5,4,0.8626151154683993,0.0,0.5058608134313628,-0.0,1.0,0.0,1.0,1.0,1.0, 1.0
178,2,0.5,4,0.5,4,0.7153280984863778,0.0,0.6987887459854106,-0.0,1.0,0.0,1.0,1.0,1.0, 1.0
179,2,0.5,4,0.5,4,0.5851724753064094,0.0,0.8109088568660289,-0.0,1.0,0.0,1.0,1.0,1.0, 1.0
180,2,0.5,4,0.5,4,0.4800621326883558,0.0,0.8772344890385395,-0.0,1.0,0.0,1.0,1.0,1.0, 1.0
181,2,0.5,4,0.5,4,0.39864582331859244,0.0,0.9171049599422313,-0.0,1.0,0.0,1.0,1.0,1.0, 1.0
182,2,0.5,4,0.5,4,0.3408140062986947,0.0,0.9401307425622424,-0.0,1.0,0.0,1.0,1.0,1.0, 1.0
183,2,0.5,4,0.5,4,0.9490056077275721,0.0,0.3152591894007556,-0.0,1.0,0.0,1.0,1.0,1.0, 1.0
184,2,0.5,4,0.5,4,0.7142886882272416,0.0,0.6998511769445033,-0.0,1.0,0.0,1.0,1.0,1.0, 1.0
185,2,0.5,4,0.5,4,0.5234680882660229,0.0,0.8520452808196963,-0.0,1.0,0.0,1.0,1.0,1.0, 1.0
186,2,0.5,4,0.5,4,0.3978086469803323,0.0,0.9174684083867287,-0.0,1.0,0.0,1.0,1.0,1.0, 1.0
187,2,0.5,4,0.5,4,0.3119594012176944,0.0,0.9500954330970639,-0.0,1.0,0.0,1.0,1.0,1.0, 1.0
188,2,0.5,4,0.5,4,0.2513706733551318,0.0,0.9678908949757651,-0.0,1.0,0.0,1.0,1.0,1.0, 1.0
189,2,0.5,4,0.5,4,0.2105166876655152,0.0,0.9775902639727647,-0.0,1.0,0.0,1.0,1.0,1.0, 1.0
190,2,0.5,4,0.5,4,0.7099324582587535,0.0,0.7042697670003186,-0.0,1.0,0.0,1.0,1.0,1.0, 1.0
191,2,0.5,4,0.5,4,0.3240780288261199,0.0,0.9460303542868889,-0.0,1.0,0.0,1.0,1.0,1.0, 1.0
192,2,0.5,4,0.5,4,0.20226877979199226,0.0,0.9793300468797321,-0.0,1.0,0.0,1.0,1.0,1.0, 1.0
193,2,0.5,4,0.5,4,0.14434516738113762,0.0,0.9895273986372037,-0.0,1.0,0.0,1.0,1.0,1.0, 1.0
194,2,0.5,4,0.5,4,0.10966231437883593,0.0,0.9939689013269365,-0.0,1.0,0.0,1.0,1.0,1.0, 1.0
195,2,0.5,4,0.5,4,0.08659528154822936,0.0,0.9962435732357738,-0.0,1.0,0.0,1.0,1.0,1.0, 1.0
196,2,0.5,4,0.5,4,0.07152172192431162,0.0,0.9974390423945623,-0.0,1.0,0.0,1.0,1.0,1.0, 1.0
197,2,0.5,4,0.5,4,0.7455339198487849,0.0,0.6664676844040568,-0.0,1.0,0.0,1.0,1.0,1.0, 1.0
198,2,0.5,4,0.5,4,0.745269333395771,0.0,0.6667635418196043,-0.0,1.0,0.0,1.0,1.0,1.0, 1.0
199,2,0.5,4,0.5,4,0.7448996675313927,0.0,0.6671765023677171,-0.0,1.0,0.0,1.0,1.0,1.0, 1.0
200,2,0.5,4,0.5,4,0.7443562086876745,0.0,0.6677827750010562,-0.0,1.0,0.0,1.0,1.0,1.0, 1.0
201,2,0.5,4,0.5,4,0.7433899068758214,0.0,0.6688583156058968,-0.0,1.0,0.0,1.0,1.0,1.0, 1.0
202,2,0.5,4,0.5,4,0.7410581338820335,0.0,0.6714408702240863,-0.0,1.0,0.0,1.0,1.0,1.0, 1.0
203,2,0.5,4,0.5,4,0.7347770574412504,0.0,0.6783086877358843,-0.0,1.0,0.0,1.0,1.0,1.0, 1.0
204,2,0.5,4,0.5,4,0.8153295867833977,0.0,0.5789971199545072,-0.0,1.0,0.0,1.0,1.0,1.0, 1.0
205,2,0.5,4,0.5,4,0.8147729102493526,0.0,0.579780221052599,-0.0,1.0,0.0,1.0,1.0,1.0, 1.0
206,2,0.5,4,0.5,4,0.8139572937013894,0.0,0.5809247145976063,-0.0,1.0,0.0,1.0,1.0,1.0, 1.0
207,2,0.5,4,0.5,4,0.8127313042183514,0.0,0.5826386763196705,-0.0,1.0,0.0,1.0,1.0,1.0, 1.0
208,2,0.5,4,0.5,4,0.8106153409104788,0.0,0.5855790032784545,-0.0,1.0,0.0,1.0,1.0,1.0, 1.0
209,2,0.5,4,0.5,4,0.8056826866739798,0.0,0.5923473713909749,-0.0,1.0,0.0,1.0,1.0,1.0, 1.0
210,2,0.5,4,0.5,4,0.7929123285236402,0.0,0.6093357360890781,-0.0,1.0,0.0,1.0,1.0,1.0, 1.0
211,2,0.5,4,0.5,4,0.8750220193966621,0.0,0.4840831184527996,-0.0,1.0,0.0,1.0,1.0,1.0, 1.0
212,2,0.5,4,0.5,4,0.8745122436308412,0.0,0.4850034388947694,-0.0,1.0,0.0,1.0,1.0,1.0, 1.0
213,2,0.5,4,0.5,4,0.8737005679833371,0.0,0.4864640968309934,-0.0,1.0,0.0,1.0,1.0,1.0, 1.0
214,2,0.5,4,0.5,4,0.8724166032708822,0.0,0.4887630001721653,-0.0,1.0,0.0,1.0,1.0,1.0, 1.0
215,2,0.5,4,0.5,4,0.8702133202708224,0.0,0.4926751234061153,-0.0,1.0,0.0,1.0,1.0,1.0, 1.0
216,2,0.5,4,0.5,4,0.8653034942851403,0.0,0.5012483045137669,-0.0,1.0,0.0,1.0,1.0,1.0, 1.0
217,2,0.5,4,0.5,4,0.8531966211612961,0.0,0.5215894224760964,-0.0,1.0,0.0,1.0,1.0,1.0, 1.0
218,2,0.5,4,0.5,4,0.9237860247254488,0.0,0.3829091021664966,-0.0,1.0,0.0,1.0,1.0,1.0, 1.0
219,2,0.5,4,0.5,4,0.9235015677584935,0.0,0.3835946484866607,-0.0,1.0,0.0,1.0,1.0,1.0, 1.0
220,2,0.5,4,0.5,4,0.9229551154793844,0.0,0.38490759256013196,-0.0,1.0,0.0,1.0,1.0,1.0, 1.0
221,2,0.5,4,0.5,4,0.9220064803813515,0.0,0.38717444406209534,-0.0,1.0,0.0,1.0,1.0,1.0, 1.0
222,2,0.5,4,0.5,4,0.9203272031441697,0.0,0.39114938214553013,-0.0,1.0,0.0,1.0,1.0,1.0, 1.0
223,2,0.5,4,0.5,4,0.9166477011328501,0.0,0.39969612458449144,-0.0,1.0,0.0,1.0,1.0,1.0, 1.0
224,2,0.5,4,0.5,4,0.9077140157741879,0.0,0.419589401161537,-0.0,1.0,0.0,1.0,1.0,1.0, 1.0
225,2,0.5,4,0.5,4,0.960910721054109,0.0,0.27685842259767446,-0.0,1.0,0.0,1.0,1.0,1.0, 1.0
226,2,0.5,4,0.5,4,0.9608285003704258,0.0,0.2771436322124663,-0.0,1.0,0.0,1.0,1.0,1.0, 1.0
227,2,0.5,4,0.5,4,0.9605687610256602,0.0,0.27804254232334313,-0.0,1.0,0.0,1.0,1.0,1.0, 1.0
228,2,0.5,4,0.5,4,0.9600467504066208,0.0,0.2798396630817143,-0.0,1.0,0.0,1.0,1.0,1.0, 1.0
229,2,0.5,4,0.5,4,0.9590706989244362,0.0,0.28316672556039024,-0.0,1.0,0.0,1.0,1.0,1.0, 1.0
230,2,0.5,4,0.5,4,0.9569130956593538,0.0,0.29037446057742816,-0.0,1.0,0.0,1.0,1.0,1.0, 1.0
231,2,0.5,4,0.5,4,0.9516830337185181,0.0,0.3070820791454915,-0.0,1.0,0.0,1.0,1.0,1.0, 1.0
232,2,0.5,4,0.5,4,0.985890723892474,0.0,0.16739020444092123,-0.0,1.0,0.0,1.0,1.0,1.0, 1.0
233,2,0.5,4,0.5,4,0.9858951399304376,0.0,0.16736419288946744,-0.0,1.0,0.0,1.0,1.0,1.0, 1.0
234,2,0.5,4,0.5,4,0.9858148487538919,0.0,0.1678364798735402,-0.0,1.0,0.0,1.0,1.0,1.0, 1.0
235,2,0.5,4,0.5,4,0.9856184713224252,0.0,0.16898588399048597,-0.0,1.0,0.0,1.0,1.0,1.0, 1.0
236,2,0.5,4,0.5,4,0.9852325937928549,0.0,0.1712213074596832,-0.0,1.0,0.0,1.0,1.0,1.0, 1.0
237,2,0.5,4,0.5,4,0.9843743254388213,0.0,0.17608857832598165,-0.0,1.0,0.0,1.0,1.0,1.0, 1.0
238,2,0.5,4,0.5,4,0.9822949673630115,0.0,0.18734085804570336,-0.0,1.0,0.0,1.0,1.0,1.0, 1.0
239,2,0.5,4,0.5,4,0.9984335032847533,0.0,0.05595122445965122,-0.0,1.0,0.0,1.0,1.0,1.0, 1.0
240,2,0.5,4,0.5,4,0.9984392093477282,0.0,0.05584930829547858,-0.0,1.0,0.0,1.0,1.0,1.0, 1.0
241,2,0.5,4,0.5,4,0.9984305817510234,0.0,0.05600333404640089,-0.0,1.0,0.0,1.0,1.0,1.0, 1.0
242,2,0.5,4,0.5,4,0.9984062319361101,0.0,0.05643576907545673,-0.0,1.0,0.0,1.0,1.0,1.0, 1.0
243,2,0.5,4,0.5,4,0.9983585484162009,0.0,0.05727310716467607,-0.0,1.0,0.0,1.0,1.0,1.0, 1.0
244,2,0.5,4,0.5,4,0.9982550715585743,0.0,0.05904923460626265,-0.0,1.0,0.0,1.0,1.0,1.0, 1.0
245,2,0.5,4,0.5,4,0.9980080330318976,0.0,0.0630869717437974,-0.0,1.0,0.0,1.0,1.0,1.0, 1.0
246,2,0.5,4,0.5,4,0.7455029564991136,0.0,0.6665023194641418,-0.0,1.0,0.0,1.0,1.0,1.0, 1.0
247,2,0.5,4,0.5,4,0.7451883966931537,0.0,0.6668539970892332,-0.0,1.0,0.0,1.0,1.0,1.0, 1.0
248,2,0.5,4,0.5,4,0.7447931429150225,0.0,0.667295417537662,-0.0,1.0,0.0,1.0,1.0,1.0, 1.0
249,2,0.5,4,0.5,4,0.7442720891706119,0.0,0.6678765284703547,-0.0,1.0,0.0,1.0,1.0,1.0, 1.0
250,2,0.5,4,0.5,4,0.7434039609931584,0.0,0.6688426950933101,-0.0,1.0,0.0,1.0,1.0,1.0, 1.0
251,2,0.5,4,0.5,4,0.741212351968394,0.0,0.6712706229900736,-0.0,1.0,0.0,1.0,1.0,1.0, 1.0
252,2,0.5,4,0.5,4,0.7350207067109675,0.0,0.678044659816822,-0.0,1.0,0.0,1.0,1.0,1.0, 1.0
253,2,0.5,4,0.5,4,0.8152626044290651,0.0,0.5790914313124809,-0.0,1.0,0.0,1.0,1.0,1.0, 1.0
254,2,0.5,4,0.5,4,0.8145857128173108,0.0,0.580043202247827,-0.0,1.0,0.0,1.0,1.0,1.0, 1.0
255,2,0.5,4,0.5,4,0.8137082044728321,0.0,0.5812735655210891,-0.0,1.0,0.0,1.0,1.0,1.0, 1.0
256,2,0.5,4,0.5,4,0.812542164065301,0.0,0.582902420320998,-0.0,1.0,0.0,1.0,1.0,1.0, 1.0
257,2,0.5,4,0.5,4,0.8106575878811142,0.0,0.5855205164729699,-0.0,1.0,0.0,1.0,1.0,1.0, 1.0
258,2,0.5,4,0.5,4,0.8060763885613043,0.0,0.5918115036090168,-0.0,1.0,0.0,1.0,1.0,1.0, 1.0
259,2,0.5,4,0.5,4,0.7935870227707246,0.0,0.6084567669850486,-0.0,1.0,0.0,1.0,1.0,1.0, 1.0
260,2,0.5,4,0.5,4,0.8749461545206837,0.0,0.4842202254031402,-0.0,1.0,0.0,1.0,1.0,1.0, 1.0
261,2,0.5,4,0.5,4,0.8742965006330004,0.0,0.4853922423987533,-0.0,1.0,0.0,1.0,1.0,1.0, 1.0
262,2,0.5,4,0.5,4,0.8734138328158525,0.0,0.4869787229909762,-0.0,1.0,0.0,1.0,1.0,1.0, 1.0
263,2,0.5,4,0.5,4,0.8722050474839745,0.0,0.48914042476928626,-0.0,1.0,0.0,1.0,1.0,1.0, 1.0
264,2,0.5,4,0.5,4,0.8702774946186972,0.0,0.4925617548695835,-0.0,1.0,0.0,1.0,1.0,1.0, 1.0
265,2,0.5,4,0.5,4,0.8658076995501592,0.0,0.5003768853570888,-0.0,1.0,0.0,1.0,1.0,1.0, 1.0
266,2,0.5,4,0.5,4,0.8541284050477277,0.0,0.5200621767544964,-0.0,1.0,0.0,1.0,1.0,1.0, 1.0
267,2,0.5,4,0.5,4,0.923718868675379,0.0,0.38307107911336497,-0.0,1.0,0.0,1.0,1.0,1.0, 1.0
268,2,0.5,4,0.5,4,0.9233153123827245,0.0,0.384042750119817,-0.0,1.0,0.0,1.0,1.0,1.0, 1.0
269,2,0.5,4,0.5,4,0.9227096659160425,0.0,0.3854956192035194,-0.0,1.0,0.0,1.0,1.0,1.0, 1.0
270,2,0.5,4,0.5,4,0.9218299603023035,0.0,0.3875945359380774,-0.0,1.0,0.0,1.0,1.0,1.0, 1.0
271,2,0.5,4,0.5,4,0.9203957662175217,0.0,0.39098802223196183,-0.0,1.0,0.0,1.0,1.0,1.0, 1.0
272,2,0.5,4,0.5,4,0.9171076506740559,0.0,0.39863963309625133,-0.0,1.0,0.0,1.0,1.0,1.0, 1.0
273,2,0.5,4,0.5,4,0.908608145518136,0.0,0.41764965928166864,-0.0,1.0,0.0,1.0,1.0,1.0, 1.0
274,2,0.5,4,0.5,4,0.960865058724765,0.0,0.2770168567467577,-0.0,1.0,0.0,1.0,1.0,1.0, 1.0
275,2,0.5,4,0.5,4,0.9607032474955987,0.0,0.27757750314355567,-0.0,1.0,0.0,1.0,1.0,1.0, 1.0
276,2,0.5,4,0.5,4,0.9604059187146271,0.0,0.27860450695908173,-0.0,1.0,0.0,1.0,1.0,1.0, 1.0
277,2,0.5,4,0.5,4,0.9599334898619077,0.0,0.28022793408498464,-0.0,1.0,0.0,1.0,1.0,1.0, 1.0
278,2,0.5,4,0.5,4,0.9591235785130289,0.0,0.2829875635789704,-0.0,1.0,0.0,1.0,1.0,1.0, 1.0
279,2,0.5,4,0.5,4,0.9572286559950777,0.0,0.28933250792445936,-0.0,1.0,0.0,1.0,1.0,1.0, 1.0
280,2,0.5,4,0.5,4,0.9523102067320622,0.0,0.3051315620415833,-0.0,1.0,0.0,1.0,1.0,1.0, 1.0
281,2,0.5,4,0.5,4,0.9858694884219813,0.0,0.16751522855722942,-0.0,1.0,0.0,1.0,1.0,1.0, 1.0
282,2,0.5,4,0.5,4,0.9858375677988226,0.0,0.16770298123915905,-0.0,1.0,0.0,1.0,1.0,1.0, 1.0
283,2,0.5,4,0.5,4,0.9857414029055631,0.0,0.16826730697842712,-0.0,1.0,0.0,1.0,1.0,1.0, 1.0
284,2,0.5,4,0.5,4,0.9855687458043122,0.0,0.1692756547578969,-0.0,1.0,0.0,1.0,1.0,1.0, 1.0
285,2,0.5,4,0.5,4,0.9852574510962516,0.0,0.17107821328070216,-0.0,1.0,0.0,1.0,1.0,1.0, 1.0
286,2,0.5,4,0.5,4,0.9845149015619508,0.0,0.17530090873256324,-0.0,1.0,0.0,1.0,1.0,1.0, 1.0
287,2,0.5,4,0.5,4,0.9825745021289852,0.0,0.18586916841148443,-0.0,1.0,0.0,1.0,1.0,1.0, 1.0
288,2,0.5,4,0.5,4,0.9984301805361104,0.0,0.05601048647021357,-0.0,1.0,0.0,1.0,1.0,1.0, 1.0
289,2,0.5,4,0.5,4,0.9984306280903543,0.0,0.05600250790009908,-0.0,1.0,0.0,1.0,1.0,1.0, 1.0
290,2,0.5,4,0.5,4,0.9984199708656603,0.0,0.05619218608146584,-0.0,1.0,0.0,1.0,1.0,1.0, 1.0
291,2,0.5,4,0.5,4,0.998399055250607,0.0,0.056562589002761836,-0.0,1.0,0.0,1.0,1.0,1.0, 1.0
292,2,0.5,4,0.5,4,0.998361378796865,0.0,0.057223747927084886,-0.0,1.0,0.0,1.0,1.0,1.0, 1.0
293,2,0.5,4,0.5,4,0.998272577737324,0.0,0.05875253643612609,-0.0,1.0,0.0,1.0,1.0,1.0, 1.0
294,2,0.5,4,0.5,4,0.9980419966828441,0.0,0.06254736491109593,-0.0,1.0,0.0,1.0,1.0,1.0, 1.0
295,2,0.5,4,0.5,4,0.997987907123662,0.0,-0.06340455216254648,0.0,1.0,0.0,1.0,1.0,1.0, 1.0
296,2,0.5,4,0.5,4,0.982145199824996,0.0,-0.18812444408082257,0.0,1.0,0.0,1.0,1.0,1.0, 1.0
297,2,0.5,4,0.5,4,0.9513941039313818,0.0,-0.30797606888296203,0.0,1.0,0.0,1.0,1.0,1.0, 1.0
298,2,0.5,4,0.5,4,0.9073768586016785,0.0,-0.4203180182601616,0.0,1.0,0.0,1.0,1.0,1.0, 1.0
299,2,0.5,4,0.5,4,0.8529096143655372,0.0,-0.5220586075555411,0.0,1.0,0.0,1.0,1.0,1.0, 1.0
300,2,0.5,4,0.5,4,0.792722490567949,0.0,-0.6095826875393922,0.0,1.0,0.0,1.0,1.0,1.0, 1.0
301,2,0.5,4,0.5,4,0.7346689602651566,0.0,-0.6784257651526169,0.0,1.0,0.0,1.0,1.0,1.0, 1.0
302,2,0.5,4,0.5,4,0.9982501841740962,0.0,-0.059131800212602524,0.0,1.0,0.0,1.0,1.0,1.0, 1.0
303,2,0.5,4,0.5,4,0.9843376421863947,0.0,-0.17629352278211743,0.0,1.0,0.0,1.0,1.0,1.0, 1.0
304,2,0.5,4,0.5,4,0.9568409854073564,0.0,-0.29061198985017633,0.0,1.0,0.0,1.0,1.0,1.0, 1.0
305,2,0.5,4,0.5,4,0.916560634552882,0.0,-0.3998957403974421,0.0,1.0,0.0,1.0,1.0,1.0, 1.0
306,2,0.5,4,0.5,4,0.8652265112441349,0.0,-0.5013811765915259,0.0,1.0,0.0,1.0,1.0,1.0, 1.0
307,2,0.5,4,0.5,4,0.8056292803047325,0.0,-0.5924200053304064,0.0,1.0,0.0,1.0,1.0,1.0, 1.0
308,2,0.5,4,0.5,4,0.7410284922832602,0.0,-0.6714735837130139,0.0,1.0,0.0,1.0,1.0,1.0, 1.0
309,2,0.5,4,0.5,4,0.9983575666688869,0.0,-0.05729021796938181,0.0,1.0,0.0,1.0,1.0,1.0, 1.0
310,2,0.5,4,0.5,4,0.9852248599150559,0.0,-0.17126580337404865,0.0,1.0,0.0,1.0,1.0,1.0, 1.0
311,2,0.5,4,0.5,4,0.9590546574379865,0.0,-0.2832210515595662,0.0,1.0,0.0,1.0,1.0,1.0, 1.0
312,2,0.5,4,0.5,4,0.9203075105679502,0.0,-0.3911957131567549,0.0,1.0,0.0,1.0,1.0,1.0, 1.0
313,2,0.5,4,0.5,4,0.8701943334745808,0.0,-0.49270865832531296,0.0,1.0,0.0,1.0,1.0,1.0, 1.0
314,2,0.5,4,0.5,4,0.8106035745597142,0.0,-0.5855952910594603,0.0,1.0,0.0,1.0,1.0,1.0, 1.0
315,2,0.5,4,0.5,4,0.74338143188002,0.0,-0.6688677348594496,0.0,1.0,0.0,1.0,1.0,1.0, 1.0
316,2,0.5,4,0.5,4,0.9984060600090966,0.0,-0.05643881055720819,0.0,1.0,0.0,1.0,1.0,1.0, 1.0
317,2,0.5,4,0.5,4,0.9856168030260261,0.0,-0.16899561412283967,0.0,1.0,0.0,1.0,1.0,1.0, 1.0
318,2,0.5,4,0.5,4,0.9600430925259538,0.0,-0.2798522118783463,0.0,1.0,0.0,1.0,1.0,1.0, 1.0
319,2,0.5,4,0.5,4,0.922002496260832,0.0,-0.3871839315994332,0.0,1.0,0.0,1.0,1.0,1.0, 1.0
320,2,0.5,4,0.5,4,0.8724117518961539,0.0,-0.48877165952363016,0.0,1.0,0.0,1.0,1.0,1.0, 1.0
321,2,0.5,4,0.5,4,0.8127292638408895,0.0,-0.5826415224618359,0.0,1.0,0.0,1.0,1.0,1.0, 1.0
322,2,0.5,4,0.5,4,0.7443526008058629,0.0,-0.6677867965702433,0.0,1.0,0.0,1.0,1.0,1.0, 1.0
323,2,0.5,4,0.5,4,0.9984305538874206,0.0,-0.056003830798066714,0.0,1.0,0.0,1.0,1.0,1.0, 1.0
324,2,0.5,4,0.5,4,0.9858144484162086,0.0,-0.16783883130505411,0.0,1.0,0.0,1.0,1.0,1.0, 1.0
325,2,0.5,4,0.5,4,0.9605679030530176,0.0,-0.27804550639118153,0.0,1.0,0.0,1.0,1.0,1.0, 1.0
326,2,0.5,4,0.5,4,0.922954408489384,0.0,-0.3849092878198852,0.0,1.0,0.0,1.0,1.0,1.0, 1.0
327,2,0.5,4,0.5,4,0.8737003568456257,0.0,-0.48646447603892545,0.0,1.0,0.0,1.0,1.0,1.0, 1.0
328,2,0.5,4,0.5,4,0.8139572937013895,0.0,-0.5809247145976061,0.0,1.0,0.0,1.0,1.0,1.0, 1.0
329,2,0.5,4,0.5,4,0.7448984357701774,0.0,-0.6671778776212105,0.0,1.0,0.0,1.0,1.0,1.0, 1.0
330,2,0.5,4,0.5,4,0.9984392093477282,0.0,-0.05584930829547858,0.0,1.0,0.0,1.0,1.0,1.0, 1.0
331,2,0.5,4,0.5,4,0.9858950992258473,0.0,-0.16736443266852366,0.0,1.0,0.0,1.0,1.0,1.0, 1.0
332,2,0.5,4,0.5,4,0.9608283033002372,0.0,-0.2771443154336517,0.0,1.0,0.0,1.0,1.0,1.0, 1.0
333,2,0.5,4,0.5,4,0.9235014804050892,0.0,-0.3835948587893335,0.0,1.0,0.0,1.0,1.0,1.0, 1.0
334,2,0.5,4,0.5,4,0.8745122436308412,0.0,-0.4850034388947692,0.0,1.0,0.0,1.0,1.0,1.0, 1.0
335,2,0.5,4,0.5,4,0.8147729102493525,0.0,-0.5797802210525989,0.0,1.0,0.0,1.0,1.0,1.0, 1.0
336,2,0.5,4,0.5,4,0.745269333395771,0.0,-0.6667635418196043,0.0,1.0,0.0,1.0,1.0,1.0, 1.0
337,2,0.5,4,0.5,4,0.9984335032847533,0.0,-0.05595122445965122,0.0,1.0,0.0,1.0,1.0,1.0, 1.0
338,2,0.5,4,0.5,4,0.9858907238924742,0.0,-0.16739020444092123,0.0,1.0,0.0,1.0,1.0,1.0, 1.0
339,2,0.5,4,0.5,4,0.9609106557125343,0.0,-0.276858649382871,0.0,1.0,0.0,1.0,1.0,1.0, 1.0
340,2,0.5,4,0.5,4,0.9237860247254488,0.0,-0.3829091021664966,0.0,1.0,0.0,1.0,1.0,1.0, 1.0
341,2,0.5,4,0.5,4,0.8750220193966621,0.0,-0.4840831184527996,0.0,1.0,0.0,1.0,1.0,1.0, 1.0
342,2,0.5,4,0.5,4,0.8153295867833975,0.0,-0.5789971199545072,0.0,1.0,0.0,1.0,1.0,1.0, 1.0
343,2,0.5,4,0.5,4,0.7455339198487849,0.0,-0.666467684404057,0.0,1.0,0.0,1.0,1.0,1.0, 1.0
344,2,0.5,4,0.5,4,0.9980212523420107,0.0,-0.06287749894584463,0.0,1.0,0.0,1.0,1.0,1.0, 1.0
345,2,0.5,4,0.5,4,0.9824164983626616,0.0,-0.1867025006389746,0.0,1.0,0.0,1.0,1.0,1.0, 1.0
346,2,0.5,4,0.5,4,0.9519933826728589,0.0,-0.30611860339921776,0.0,1.0,0.0,1.0,1.0,1.0, 1.0
347,2,0.5,4,0.5,4,0.9082235620835432,0.0,-0.41848531787421256,0.0,1.0,0.0,1.0,1.0,1.0, 1.0
348,2,0.5,4,0.5,4,0.8537957626967765,0.0,-0.5206081017435569,0.0,1.0,0.0,1.0,1.0,1.0, 1.0
349,2,0.5,4,0.5,4,0.7933729749414434,0.0,-0.6087358397799195,0.0,1.0,0.0,1.0,1.0,1.0, 1.0
350,2,0.5,4,0.5,4,0.7349017268852783,0.0,-0.6781736148074737,0.0,1.0,0.0,1.0,1.0,1.0, 1.0
351,2,0.5,4,0.5,4,0.9982677393994801,0.0,-0.058834687678712846,0.0,1.0,0.0,1.0,1.0,1.0, 1.0
352,2,0.5,4,0.5,4,0.984478037975193,0.0,-0.1755078139129835,0.0,1.0,0.0,1.0,1.0,1.0, 1.0
353,2,0.5,4,0.5,4,0.9571543970465436,0.0,-0.28957807274458397,0.0,1.0,0.0,1.0,1.0,1.0, 1.0
354,2,0.5,4,0.5,4,0.9170174607037072,0.0,-0.39884705936552295,0.0,1.0,0.0,1.0,1.0,1.0, 1.0
355,2,0.5,4,0.5,4,0.8657292919102503,0.0,-0.5005125304411235,0.0,1.0,0.0,1.0,1.0,1.0, 1.0
356,2,0.5,4,0.5,4,0.8060227159239547,0.0,-0.5918846014339042,0.0,1.0,0.0,1.0,1.0,1.0, 1.0
357,2,0.5,4,0.5,4,0.7411801085236033,0.0,-0.6713062242590484,0.0,1.0,0.0,1.0,1.0,1.0, 1.0
358,2,0.5,4,0.5,4,0.998360494720753,0.0,-0.05723916998815784,0.0,1.0,0.0,1.0,1.0,1.0, 1.0
359,2,0.5,4,0.5,4,0.9852504168916979,0.0,-0.1711187190658449,0.0,1.0,0.0,1.0,1.0,1.0, 1.0
360,2,0.5,4,0.5,4,0.9591086799354243,0.0,-0.2830380541067361,0.0,1.0,0.0,1.0,1.0,1.0, 1.0
361,2,0.5,4,0.5,4,0.9203782041413395,0.0,-0.39102936122695786,0.0,1.0,0.0,1.0,1.0,1.0, 1.0
362,2,0.5,4,0.5,4,0.8702619016657748,0.0,-0.4925893040952771,0.0,1.0,0.0,1.0,1.0,1.0, 1.0
363,2,0.5,4,0.5,4,0.8106467388085333,0.0,-0.5855355368029251,0.0,1.0,0.0,1.0,1.0,1.0, 1.0
364,2,0.5,4,0.5,4,0.7433947837714937,0.0,-0.6688528952328263,0.0,1.0,0.0,1.0,1.0,1.0, 1.0
365,2,0.5,4,0.5,4,0.998398885553762,0.0,-0.05656558428060286,0.0,1.0,0.0,1.0,1.0,1.0, 1.0
366,2,0.5,4,0.5,4,0.9855672387468782,0.0,-0.1692844290206683,0.0,1.0,0.0,1.0,1.0,1.0, 1.0
367,2,0.5,4,0.5,4,0.9599302908756102,0.0,-0.28023889212503356,0.0,1.0,0.0,1.0,1.0,1.0, 1.0
368,2,0.5,4,0.5,4,0.9218268279161322,0.0,-0.3876019857199928,0.0,1.0,0.0,1.0,1.0,1.0, 1.0
369,2,0.5,4,0.5,4,0.8722012306813655,0.0,-0.48914723059413445,0.0,1.0,0.0,1.0,1.0,1.0, 1.0
370,2,0.5,4,0.5,4,0.8125404465074664,0.0,-0.5829048145190149,0.0,1.0,0.0,1.0,1.0,1.0, 1.0
371,2,0.5,4,0.5,4,0.7442690549538593,0.0,-0.6678799097428288,0.0,1.0,0.0,1.0,1.0,1.0, 1.0
372,2,0.5,4,0.5,4,0.9984199356144058,0.0,-0.056192812420503405,0.0,1.0,0.0,1.0,1.0,1.0, 1.0
373,2,0.5,4,0.5,4,0.9857409369109567,0.0,-0.16827003683933014,0.0,1.0,0.0,1.0,1.0,1.0, 1.0
374,2,0.5,4,0.5,4,0.9604049787260532,0.0,-0.27860774726882476,0.0,1.0,0.0,1.0,1.0,1.0, 1.0
375,2,0.5,4,0.5,4,0.922709072226379,0.0,-0.385497040236543,0.0,1.0,0.0,1.0,1.0,1.0, 1.0
376,2,0.5,4,0.5,4,0.8734136557366904,0.0,-0.486979040588679,0.0,1.0,0.0,1.0,1.0,1.0, 1.0
377,2,0.5,4,0.5,4,0.8137082044728321,0.0,-0.5812735655210889,0.0,1.0,0.0,1.0,1.0,1.0, 1.0
378,2,0.5,4,0.5,4,0.7447921117487964,0.0,-0.6672965684587089,0.0,1.0,0.0,1.0,1.0,1.0, 1.0
379,2,0.5,4,0.5,4,0.9984306280903542,0.0,-0.056002507900099065,0.0,1.0,0.0,1.0,1.0,1.0, 1.0
380,2,0.5,4,0.5,4,0.9858374417782578,0.0,-0.1677037220460532,0.0,1.0,0.0,1.0,1.0,1.0, 1.0
381,2,0.5,4,0.5,4,0.9607028693167181,0.0,-0.27757881202754814,0.0,1.0,0.0,1.0,1.0,1.0, 1.0
382,2,0.5,4,0.5,4,0.9233152394530986,0.0,-0.3840429254571257,0.0,1.0,0.0,1.0,1.0,1.0, 1.0
383,2,0.5,4,0.5,4,0.8742965006330004,0.0,-0.4853922423987533,0.0,1.0,0.0,1.0,1.0,1.0, 1.0
384,2,0.5,4,0.5,4,0.8145857128173107,0.0,-0.580043202247827,0.0,1.0,0.0,1.0,1.0,1.0, 1.0
385,2,0.5,4,0.5,4,0.7451883966931537,0.0,-0.6668539970892332,0.0,1.0,0.0,1.0,1.0,1.0, 1.0
386,2,0.5,4,0.5,4,0.9984301805361104,0.0,-0.056010486470213436,0.0,1.0,0.0,1.0,1.0,1.0, 1.0
387,2,0.5,4,0.5,4,0.9858694884219813,0.0,-0.16751522855722942,0.0,1.0,0.0,1.0,1.0,1.0, 1.0
388,2,0.5,4,0.5,4,0.9608650044759877,0.0,-0.2770170449148573,0.0,1.0,0.0,1.0,1.0,1.0, 1.0
389,2,0.5,4,0.5,4,0.9237188686753789,0.0,-0.38307107911336513,0.0,1.0,0.0,1.0,1.0,1.0, 1.0
390,2,0.5,4,0.5,4,0.8749461545206837,0.0,-0.4842202254031403,0.0,1.0,0.0,1.0,1.0,1.0, 1.0
391,2,0.5,4,0.5,4,0.8152626044290652,0.0,-0.5790914313124809,0.0,1.0,0.0,1.0,1.0,1.0, 1.0
392,2,0.5,4,0.5,4,0.7455029564991136,0.0,-0.6665023194641415,0.0,1.0,0.0,1.0,1.0,1.0, 1.0
393,2,0.5,4,0.5,4,0.07123218784480424,0.0,-0.9974597613010975,0.0,1.0,0.0,1.0,1.0,1.0, 1.0
394,2,0.5,4,0.5,4,0.2100225532284567,0.0,-0.9776965414357361,0.0,1.0,0.0,1.0,1.0,1.0, 1.0
395,2,0.5,4,0.5,4,0.3404801189380401,0.0,-0.9402517155570301,0.0,1.0,0.0,1.0,1.0,1.0, 1.0
396,2,0.5,4,0.5,4,0.45905257070409006,0.0,-0.8884091047090673,0.0,1.0,0.0,1.0,1.0,1.0, 1.0
397,2,0.5,4,0.5,4,0.5623928597880956,0.0,-0.8268701659023426,0.0,1.0,0.0,1.0,1.0,1.0, 1.0
398,2,0.5,4,0.5,4,0.6468087811873918,0.0,-0.7626522146947983,0.0,1.0,0.0,1.0,1.0,1.0, 1.0
399,2,0.5,4,0.5,4,0.7069638351670054,0.0,-0.7072496983145056,0.0,1.0,0.0,1.0,1.0,1.0, 1.0
400,2,0.5,4,0.5,4,0.08508781854366451,0.0,-0.9963734556557999,0.0,1.0,0.0,1.0,1.0,1.0, 1.0
401,2,0.5,4,0.5,4,0.24787970485584426,0.0,-0.9687908194861157,0.0,1.0,0.0,1.0,1.0,1.0, 1.0
402,2,0.5,4,0.5,4,0.39474783200928276,0.0,-0.9187895020754052,0.0,1.0,0.0,1.0,1.0,1.0, 1.0
403,2,0.5,4,0.5,4,0.5213522639280808,0.0,-0.8533415593401419,0.0,1.0,0.0,1.0,1.0,1.0, 1.0
404,2,0.5,4,0.5,4,0.6256316713264061,0.0,-0.780118588314192,0.0,1.0,0.0,1.0,1.0,1.0, 1.0
405,2,0.5,4,0.5,4,0.7063998276369869,0.0,-0.7078130286413461,0.0,1.0,0.0,1.0,1.0,1.0, 1.0
406,2,0.5,4,0.5,4,0.7620899812240687,0.0,-0.6474711271693114,0.0,1.0,0.0,1.0,1.0,1.0, 1.0
407,2,0.5,4,0.5,4,0.10625694212029971,0.0,-0.9943387060007486,0.0,1.0,0.0,1.0,1.0,1.0, 1.0
408,2,0.5,4,0.5,4,0.3036188962750368,0.0,-0.9527935588702983,0.0,1.0,0.0,1.0,1.0,1.0, 1.0
409,2,0.5,4,0.5,4,0.4705430276352247,0.0,-0.8823770504403864,0.0,1.0,0.0,1.0,1.0,1.0, 1.0
410,2,0.5,4,0.5,4,0.6034633168339834,0.0,-0.797390760691223,0.0,1.0,0.0,1.0,1.0,1.0, 1.0
411,2,0.5,4,0.5,4,0.7046148670945857,0.0,-0.7095899443124033,0.0,1.0,0.0,1.0,1.0,1.0, 1.0
412,2,0.5,4,0.5,4,0.7777856905553425,0.0,-0.6285295693659517,0.0,1.0,0.0,1.0,1.0,1.0, 1.0
413,2,0.5,4,0.5,4,0.8259732696214745,0.0,-0.5637092848896592,0.0,1.0,0.0,1.0,1.0,1.0, 1.0
414,2,0.5,4,0.5,4,0.13877120764018555,0.0,-0.9903244680053526,0.0,1.0,0.0,1.0,1.0,1.0, 1.0
415,2,0.5,4,0.5,4,0.3838072114158184,0.0,-0.9234132468538737,0.0,1.0,0.0,1.0,1.0,1.0, 1.0
416,2,0.5,4,0.5,4,0.5698284455473666,0.0,-0.8217636781003841,0.0,1.0,0.0,1.0,1.0,1.0, 1.0
417,2,0.5,4,0.5,4,0.7011330081907122,0.0,-0.7130305076400608,0.0,1.0,0.0,1.0,1.0,1.0, 1.0
418,2,0.5,4,0.5,4,0.7908319929375761,0.0,-0.6120332988869001,0.0,1.0,0.0,1.0,1.0,1.0, 1.0
419,2,0.5,4,0.5,4,0.8503959047732591,0.0,-0.5261433313697608,0.0,1.0,0.0,1.0,1.0,1.0, 1.0
420,2,0.5,4,0.5,4,0.8873157931133446,0.0,-0.4611623177273231,0.0,1.0,0.0,1.0,1.0,1.0, 1.0
421,2,0.5,4,0.5,4,0.19489898232483557,0.0,-0.9808233208324237,0.0,1.0,0.0,1.0,1.0,1.0, 1.0
422,2,0.5,4,0.5,4,0.5052810763142015,0.0,-0.8629548272758905,0.0,1.0,0.0,1.0,1.0,1.0, 1.0
423,2,0.5,4,0.5,4,0.6975476066417218,0.0,-0.7165384403285044,0.0,1.0,0.0,1.0,1.0,1.0, 1.0
424,2,0.5,4,0.5,4,0.8097254100528224,0.0,-0.5868089640716035,0.0,1.0,0.0,1.0,1.0,1.0, 1.0
425,2,0.5,4,0.5,4,0.8761667354493609,0.0,-0.48200814483990806,0.0,1.0,0.0,1.0,1.0,1.0, 1.0
426,2,0.5,4,0.5,4,0.9161131201914118,0.0,-0.400919881040035,0.0,1.0,0.0,1.0,1.0,1.0, 1.0
427,2,0.5,4,0.5,4,0.9392884951348556,0.0,-0.3431284350025491,0.0,1.0,0.0,1.0,1.0,1.0, 1.0
428,2,0.5,4,0.5,4,0.3157289085950076,0.0,-0.9488494381499128,0.0,1.0,0.0,1.0,1.0,1.0, 1.0
429,2,0.5,4,0.5,4,0.6975172680998998,0.0,-0.716567973539463,0.0,1.0,0.0,1.0,1.0,1.0, 1.0
430,2,0.5,4,0.5,4,0.8499340818179891,0.0,-0.526889036291525,0.0,1.0,0.0,1.0,1.0,1.0, 1.0
431,2,0.5,4,0.5,4,0.9161868390942461,0.0,-0.4007513891061312,0.0,1.0,0.0,1.0,1.0,1.0, 1.0
432,2,0.5,4,0.5,4,0.9493111984895164,0.0,-0.3143377934999197,0.0,1.0,0.0,1.0,1.0,1.0, 1.0
433,2,0.5,4,0.5,4,0.9673465097464877,0.0,-0.2534575508468594,0.0,1.0,0.0,1.0,1.0,1.0, 1.0
434,2,0.5,4,0.5,4,0.9771884805178568,0.0,-0.21237390033429696,0.0,1.0,0.0,1.0,1.0,1.0, 1.0
435,2,0.5,4,0.5,4,0.702986646499534,0.0,-0.711203047549249,0.0,1.0,0.0,1.0,1.0,1.0, 1.0
436,2,0.5,4,0.5,4,0.9446788686016357,0.0,-0.32799670001012743,0.0,1.0,0.0,1.0,1.0,1.0, 1.0
437,2,0.5,4,0.5,4,0.9787319525309099,0.0,-0.2051432794293606,0.0,1.0,0.0,1.0,1.0,1.0, 1.0
438,2,0.5,4,0.5,4,0.9892736338135459,0.0,-0.1460742189482526,0.0,1.0,0.0,1.0,1.0,1.0, 1.0
439,2,0.5,4,0.5,4,0.9938512531138767,0.0,-0.11072346943614492,0.0,1.0,0.0,1.0,1.0,1.0, 1.0
440,2,0.5,4,0.5,4,0.9961758412332075,0.0,-0.08737100974185553,0.0,1.0,0.0,1.0,1.0,1.0, 1.0
441,2,0.5,4,0.5,4,0.9973910413083035,0.0,-0.07218802336910293,0.0,1.0,0.0,1.0,1.0,1.0, 1.0
442,2,0.5,4,0.5,4,0.07053734476882578,0.0,-0.9975091393029758,0.0,1.0,0.0,1.0,1.0,1.0, 1.0
443,2,0.5,4,0.5,4,0.20802966467338616,0.0,-0.9781225171806845,0.0,1.0,0.0,1.0,1.0,1.0, 1.0
444,2,0.5,4,0.5,4,0.3378773604163544,0.0,-0.9411901451450057,0.0,1.0,0.0,1.0,1.0,1.0, 1.0
445,2,0.5,4,0.5,4,0.45662282906707685,0.0,-0.8896603801309684,0.0,1.0,0.0,1.0,1.0,1.0, 1.0
446,2,0.5,4,0.5,4,0.5606995051650054,0.0,-0.8280193626405834,0.0,1.0,0.0,1.0,1.0,1.0, 1.0
447,2,0.5,4,0.5,4,0.6460484848513905,0.0,-0.7632963744321223,0.0,1.0,0.0,1.0,1.0,1.0, 1.0
448,2,0.5,4,0.5,4,0.7069398080642664,0.0,-0.7072737148898284,0.0,1.0,0.0,1.0,1.0,1.0, 1.0
449,2,0.5,4,0.5,4,0.084350787437807,0.0,-0.9964361217150962,0.0,1.0,0.0,1.0,1.0,1.0, 1.0
450,2,0.5,4,0.5,4,0.24570576315368095,0.0,-0.9693444578440975,0.0,1.0,0.0,1.0,1.0,1.0, 1.0
451,2,0.5,4,0.5,4,0.3920380346161289,0.0,-0.9199490091381819,0.0,1.0,0.0,1.0,1.0,1.0, 1.0
452,2,0.5,4,0.5,4,0.5190863190304847,0.0,-0.854721822229538,0.0,1.0,0.0,1.0,1.0,1.0, 1.0
453,2,0.5,4,0.5,4,0.6243867736859984,0.0,-0.7811153287741764,0.0,1.0,0.0,1.0,1.0,1.0, 1.0
454,2,0.5,4,0.5,4,0.7062274710577846,0.0,-0.7079849992219651,0.0,1.0,0.0,1.0,1.0,1.0, 1.0
455,2,0.5,4,0.5,4,0.762604546458872,0.0,-0.6468649826047612,0.0,1.0,0.0,1.0,1.0,1.0, 1.0
456,2,0.5,4,0.5,4,0.10555198474033636,0.0,-0.9944137863673128,0.0,1.0,0.0,1.0,1.0,1.0, 1.0
457,2,0.5,4,0.5,4,0.3017419346247364,0.0,-0.9533896395959635,0.0,1.0,0.0,1.0,1.0,1.0, 1.0
458,2,0.5,4,0.5,4,0.46848458894364414,0.0,-0.8834716689981092,0.0,1.0,0.0,1.0,1.0,1.0, 1.0
459,2,0.5,4,0.5,4,0.6020661972990686,0.0,-0.7984461748106999,0.0,1.0,0.0,1.0,1.0,1.0, 1.0
460,2,0.5,4,0.5,4,0.7042556689935028,0.0,-0.7099464435367742,0.0,1.0,0.0,1.0,1.0,1.0, 1.0
461,2,0.5,4,0.5,4,0.7783192193478339,0.0,-0.6278687703603185,0.0,1.0,0.0,1.0,1.0,1.0, 1.0
462,2,0.5,4,0.5,4,0.826929676956501,0.0,-0.5623053524275018,0.0,1.0,0.0,1.0,1.0,1.0, 1.0
463,2,0.5,4,0.5,4,0.1381684883108357,0.0,-0.9904087382681447,0.0,1.0,0.0,1.0,1.0,1.0, 1.0
464,2,0.5,4,0.5,4,0.3828347742427643,0.0,-0.923816830129486,0.0,1.0,0.0,1.0,1.0,1.0, 1.0
465,2,0.5,4,0.5,4,0.5692189234606444,0.0,-0.8221859991354178,0.0,1.0,0.0,1.0,1.0,1.0, 1.0
466,2,0.5,4,0.5,4,0.701097278840706,0.0,-0.7130656390558706,0.0,1.0,0.0,1.0,1.0,1.0, 1.0
467,2,0.5,4,0.5,4,0.7914022185380142,0.0,-0.6112957782392325,0.0,1.0,0.0,1.0,1.0,1.0, 1.0
468,2,0.5,4,0.5,4,0.8513912691805343,0.0,-0.5245311304042487,0.0,1.0,0.0,1.0,1.0,1.0, 1.0
469,2,0.5,4,0.5,4,0.8883896564721857,0.0,-0.4590902071197246,0.0,1.0,0.0,1.0,1.0,1.0, 1.0
470,2,0.5,4,0.5,4,0.1943622905020945,0.0,-0.9809298140187092,0.0,1.0,0.0,1.0,1.0,1.0, 1.0
471,2,0.5,4,0.5,4,0.5058608134313628,0.0,-0.8626151154683993,0.0,1.0,0.0,1.0,1.0,1.0, 1.0
472,2,0.5,4,0.5,4,0.6987887459854106,0.0,-0.7153280984863778,0.0,1.0,0.0,1.0,1.0,1.0, 1.0
473,2,0.5,4,0.5,4,0.8109088568660289,0.0,-0.5851724753064094,0.0,1.0,0.0,1.0,1.0,1.0, 1.0
474,2,0.5,4,0.5,4,0.8772344890385395,0.0,-0.4800621326883558,0.0,1.0,0.0,1.0,1.0,1.0, 1.0
475,2,0.5,4,0.5,4,0.9171049599422313,0.0,-0.39864582331859244,0.0,1.0,0.0,1.0,1.0,1.0, 1.0
476,2,0.5,4,0.5,4,0.9401307425622424,0.0,-0.3408140062986947,0.0,1.0,0.0,1.0,1.0,1.0, 1.0
477,2,0.5,4,0.5,4,0.3152591894007556,0.0,-0.9490056077275721,0.0,1.0,0.0,1.0,1.0,1.0, 1.0
478,2,0.5,4,0.5,4,0.6998511769445033,0.0,-0.7142886882272416,0.0,1.0,0.0,1.0,1.0,1.0, 1.0
479,2,0.5,4,0.5,4,0.8520452808196963,0.0,-0.5234680882660229,0.0,1.0,0.0,1.0,1.0,1.0, 1.0
480,2,0.5,4,0.5,4,0.9174684083867287,0.0,-0.3978086469803323,0.0,1.0,0.0,1.0,1.0,1.0, 1.0
481,2,0.5,4,0.5,4,0.9500954330970639,0.0,-0.3119594012176944,0.0,1.0,0.0,1.0,1.0,1.0, 1.0
482,2,0.5,4,0.5,4,0.9678908949757651,0.0,-0.2513706733551318,0.0,1.0,0.0,1.0,1.0,1.0, 1.0
483,2,0.5,4,0.5,4,0.9775902639727647,0.0,-0.2105166876655152,0.0,1.0,0.0,1.0,1.0,1.0, 1.0
484,2,0.5,4,0.5,4,0.7042697670003186,0.0,-0.7099324582587535,0.0,1.0,0.0,1.0,1.0,1.0, 1.0
485,2,0.5,4,0.5,4,0.9460303542868889,0.0,-0.3240780288261199,0.0,1.0,0.0,1.0,1.0,1.0, 1.0
486,2,0.5,4,0.5,4,0.9793300468797321,0.0,-0.20226877979199226,0.0,1.0,0.0,1.0,1.0,1.0, 1.0
487,2,0.5,4,0.5,4,0.9895273986372037,0.0,-0.14434516738113762,0.0,1.0,0.0,1.0,1.0,1.0, 1.0
488,2,0.5,4,0.5,4,0.9939689013269365,0.0,-0.10966231437883593,0.0,1.0,0.0,1.0,1.0,1.0, 1.0
489,2,0.5,4,0.5,4,0.9962435732357738,0.0,-0.08659528154822936,0.0,1.0,0.0,1.0,1.0,1.0, 1.0
490,2,0.5,4,0.5,4,0.9974390423945623,0.0,-0.07152172192431162,0.0,1.0,0.0,1.0,1.0,1.0, 1.0
491,2,0.5,4,0.5,4,0.6664676844040568,0.0,-0.7455339198487849,0.0,1.0,0.0,1.0,1.0,1.0, 1.0
492,2,0.5,4,0.5,4,0.6667635418196043,0.0,-0.745269333395771,0.0,1.0,0.0,1.0,1.0,1.0, 1.0
493,2,0.5,4,0.5,4,0.6671765023677171,0.0,-0.7448996675313927,0.0,1.0,0.0,1.0,1.0,1.0, 1.0
494,2,0.5,4,0.5,4,0.6677827750010562,0.0,-0.7443562086876745,0.0,1.0,0.0,1.0,1.0,1.0, 1.0
495,2,0.5,4,0.5,4,0.6688583156058968,0.0,-0.7433899068758214,0.0,1.0,0.0,1.0,1.0,1.0, 1.0
496,2,0.5,4,0.5,4,0.6714408702240863,0.0,-0.7410581338820335,0.0,1.0,0.0,1.0,1.0,1.0, 1.0
497,2,0.5,4,0.5,4,0.6783086877358843,0.0,-0.7347770574412504,0.0,1.0,0.0,1.0,1.0,1.0, 1.0
498,2,0.5,4,0.5,4,0.5789971199545072,0.0,-0.8153295867833977,0.0,1.0,0.0,1.0,1.0,1.0, 1.0
499,2,0.5,4,0.5,4,0.579780221052599,0.0,-0.8147729102493526,0.0,1.0,0.0,1.0,1.0,1.0, 1.0
500,2,0.5,4,0.5,4,0.5809247145976063,0.0,-0.8139572937013894,0.0,1.0,0.0,1.0,1.0,1.0, 1.0
501,2,0.5,4,0.5,4,0.5826386763196705,0.0,-0.8127313042183514,0.0,1.0,0.0,1.0,1.0,1.0, 1.0
502,2,0.5,4,0.5,4,0.5855790032784545,0.0,-0.8106153409104788,0.0,1.0,0.0,1.0,1.0,1.0, 1.0
503,2,0.5,4,0.5,4,0.5923473713909749,0.0,-0.8056826866739798,0.0,1.0,0.0,1.0,1.0,1.0, 1.0
504,2,0.5,4,0.5,4,0.6093357360890781,0.0,-0.7929123285236402,0.0,1.0,0.0,1.0,1.0,1.0, 1.0
505,2,0.5,4,0.5,4,0.4840831184527996,0.0,-0.8750220193966621,0.0,1.0,0.0,1.0,1.0,1.0, 1.0
506,2,0.5,4,0.5,4,0.4850034388947694,0.0,-0.8745122436308412,0.0,1.0,0.0,1.0,1.0,1.0, 1.0
507,2,0.5,4,0.5,4,0.4864640968309934,0.0,-0.8737005679833371,0.0,1.0,0.0,1.0,1.0,1.0, 1.0
508,2,0.5,4,0.5,4,0.4887630001721653,0.0,-0.8724166032708822,0.0,1.0,0.0,1.0,1.0,1.0, 1.0
509,2,0.5,4,0.5,4,0.4926751234061153,0.0,-0.8702133202708224,0.0,1.0,0.0,1.0,1.0,1.0, 1.0
510,2,0.5,4,0.5,4,0.5012483045137669,0.0,-0.8653034942851403,0.0,1.0,0.0,1.0,1.0,1.0, 1.0
511,2,0.5,4,0.5,4,0.5215894224760964,0.0,-0.8531966211612961,0.0,1.0,0.0,1.0,1.0,1.0, 1.0
512,2,0.5,4,0.5,4,0.3829091021664966,0.0,-0.9237860247254488,0.0,1.0,0.0,1.0,1.0,1.0, 1.0
513,2,0.5,4,0.5,4,0.3835946484866607,0.0,-0.9235015677584935,0.0,1.0,0.0,1.0,1.0,1.0, 1.0
514,2,0.5,4,0.5,4,0.38490759256013196,0.0,-0.9229551154793844,0.0,1.0,0.0,1.0,1.0,1.0, 1.0
515,2,0.5,4,0.5,4,0.38717444406209534,0.0,-0.9220064803813515,0.0,1.0,0.0,1.0,1.0,1.0, 1.0
516,2,0.5,4,0.5,4,0.39114938214553013,0.0,-0.9203272031441697,0.0,1.0,0.0,1.0,1.0,1.0, 1.0
517,2,0.5,4,0.5,4,0.39969612458449144,0.0,-0.9166477011328501,0.0,1.0,0.0,1.0,1.0,1.0, 1.0
518,2,0.5,4,0.5,4,0.419589401161537,0.0,-0.9077140157741879,0.0,1.0,0.0,1.0,1.0,1.0, 1.0
519,2,0.5,4,0.5,4,0.27685842259767446,0.0,-0.960910721054109,0.0,1.0,0.0,1.0,1.0,1.0, 1.0
520,2,0.5,4,0.5,4,0.2771436322124663,0.0,-0.9608285003704258,0.0,1.0,0.0,1.0,1.0,1.0, 1.0
521,2,0.5,4,0.5,4,0.27804254232334313,0.0,-0.9605687610256602,0.0,1.0,0.0,1.0,1.0,1.0, 1.0
522,2,0.5,4,0.5,4,0.2798396630817143,0.0,-0.9600467504066208,0.0,1.0,0.0,1.0,1.0,1.0, 1.0
523,2,0.5,4,0.5,4,0.28316672556039024,0.0,-0.9590706989244362,0.0,1.0,0.0,1.0,1.0,1.0, 1.0
524,2,0.5,4,0.5,4,0.29037446057742816,0.0,-0.9569130956593538,0.0,1.0,0.0,1.0,1.0,1.0, 1.0
525,2,0.5,4,0.5,4,0.3070820791454915,0.0,-0.9516830337185181,0.0,1.0,0.0,1.0,1.0,1.0, 1.0
526,2,0.5,4,0.5,4,0.16739020444092123,0.0,-0.985890723892474,0.0,1.0,0.0,1.0,1.0,1.0, 1.0
527,2,0.5,4,0.5,4,0.16736419288946744,0.0,-0.9858951399304376,0.0,1.0,0.0,1.0,1.0,1.0, 1.0
528,2,0.5,4,0.5,4,0.1678364798735402,0.0,-0.9858148487538919,0.0,1.0,0.0,1.0,1.0,1.0, 1.0
529,2,0.5,4,0.5,4,0.16898588399048597,0.0,-0.9856184713224252,0.0,1.0,0.0,1.0,1.0,1.0, 1.0
530,2,0.5,4,0.5,4,0.1712213074596832,0.0,-0.9852325937928549,0.0,1.0,0.0,1.0,1.0,1.0, 1.0
531,2,0.5,4,0.5,4,0.17608857832598165,0.0,-0.9843743254388213,0.0,1.0,0.0,1.0,1.0,1.0, 1.0
532,2,0.5,4,0.5,4,0.18734085804570336,0.0,-0.9822949673630115,0.0,1.0,0.0,1.0,1.0,1.0, 1.0
533,2,0.5,4,0.5,4,0.05595122445965122,0.0,-0.9984335032847533,0.0,1.0,0.0,1.0,1.0,1.0, 1.0
534,2,0.5,4,0.5,4,0.05584930829547858,0.0,-0.9984392093477282,0.0,1.0,0.0,1.0,1.0,1.0, 1.0
535,2,0.5,4,0.5,4,0.05600333404640089,0.0,-0.9984305817510234,0.0,1.0,0.0,1.0,1.0,1.0, 1.0
536,2,0.5,4,0.5,4,0.05643576907545673,0.0,-0.9984062319361101,0.0,1.0,0.0,1.0,1.0,1.0, 1.0
537,2,0.5,4,0.5,4,0.05727310716467607,0.0,-0.9983585484162009,0.0,1.0,0.0,1.0,1.0,1.0, 1.0
538,2,0.5,4,0.5,4,0.05904923460626265,0.0,-0.9982550715585743,0.0,1.0,0.0,1.0,1.0,1.0, 1.0
539,2,0.5,4,0.5,4,0.0630869717437974,0.0,-0.9980080330318976,0.0,1.0,0.0,1.0,1.0,1.0, 1.0
540,2,0.5,4,0.5,4,0.6665023194641418,0.0,-0.7455029564991136,0.0,1.0,0.0,1.0,1.0,1.0, 1.0
541,2,0.5,4,0.5,4,0.6668539970892332,0.0,-0.7451883966931537,0.0,1.0,0.0,1.0,1.0,1.0, 1.0
542,2,0.5,4,0.5,4,0.667295417537662,0.0,-0.7447931429150225,0.0,1.0,0.0,1.0,1.0,1.0, 1.0
543,2,0.5,4,0.5,4,0.6678765284703547,0.0,-0.7442720891706119,0.0,1.0,0.0,1.0,1.0,1.0, 1.0
544,2,0.5,4,0.5,4,0.6688426950933101,0.0,-0.7434039609931584,0.0,1.0,0.0,1.0,1.0,1.0, 1.0
545,2,0.5,4,0.5,4,0.6712706229900736,0.0,-0.741212351968394,0.0,1.0,0.0,1.0,1.0,1.0, 1.0
546,2,0.5,4,0.5,4,0.678044659816822,0.0,-0.7350207067109675,0.0,1.0,0.0,1.0,1.0,1.0, 1.0
547,2,0.5,4,0.5,4,0.5790914313124809,0.0,-0.8152626044290651,0.0,1.0,0.0,1.0,1.0,1.0, 1.0
548,2,0.5,4,0.5,4,0.580043202247827,0.0,-0.8145857128173108,0.0,1.0,0.0,1.0,1.0,1.0, 1.0
549,2,0.5,4,0.5,4,0.5812735655210891,0.0,-0.8137082044728321,0.0,1.0,0.0,1.0,1.0,1.0, 1.0
550,2,0.5,4,0.5,4,0.582902420320998,0.0,-0.812542164065301,0.0,1.0,0.0,1.0,1.0,1.0, 1.0
551,2,0.5,4,0.5,4,0.5855205164729699,0.0,-0.8106575878811142,0.0,1.0,0.0,1.0,1.0,1.0, 1.0
552,2,0.5,4,0.5,4,0.5918115036090168,0.0,-0.8060763885613043,0.0,1.0,0.0,1.0,1.0,1.0, 1.0
553,2,0.5,4,0.5,4,0.6084567669850486,0.0,-0.7935870227707246,0.0,1.0,0.0,1.0,1.0,1.0, 1.0
554,2,0.5,4,0.5,4,0.4842202254031402,0.0,-0.8749461545206837,0.0,1.0,0.0,1.0,1.0,1.0, 1.0
555,2,0.5,4,0.5,4,0.4853922423987533,0.0,-0.8742965006330004,0.0,1.0,0.0,1.0,1.0,1.0, 1.0
556,2,0.5,4,0.5,4,0.4869787229909762,0.0,-0.8734138328158525,0.0,1.0,0.0,1.0,1.0,1.0, 1.0
557,2,0.5,4,0.5,4,0.48914042476928626,0.0,-0.8722050474839745,0.0,1.0,0.0,1.0,1.0,1.0, 1.0
558,2,0.5,4,0.5,4,0.4925617548695835,0.0,-0.8702774946186972,0.0,1.0,0.0,1.0,1.0,1.0, 1.0
559,2,0.5,4,0.5,4,0.5003768853570888,0.0,-0.8658076995501592,0.0,1.0,0.0,1.0,1.0,1.0, 1.0
560,2,0.5,4,0.5,4,0.5200621767544964,0.0,-0.8541284050477277,0.0,1.0,0.0,1.0,1.0,1.0, 1.0
561,2,0.5,4,0.5,4,0.38307107911336497,0.0,-0.923718868675379,0.0,1.0,0.0,1.0,1.0,1.0, 1.0
562,2,0.5,4,0.5,4,0.384042750119817,0.0,-0.9233153123827245,0.0,1.0,0.0,1.0,1.0,1.0, 1.0
563,2,0.5,4,0.5,4,0.3854956192035194,0.0,-0.9227096659160425,0.0,1.0,0.0,1.0,1.0,1.0, 1.0
564,2,0.5,4,0.5,4,0.3875945359380774,0.0,-0.9218299603023035,0.0,1.0,0.0,1.0,1.0,1.0, 1.0
565,2,0.5,4,0.5,4,0.39098802223196183,0.0,-0.9203957662175217,0.0,1.0,0.0,1.0,1.0,1.0, 1.0
566,2,0.5,4,0.5,4,0.39863963309625133,0.0,-0.9171076506740559,0.0,1.0,0.0,1.0,1.0,1.0, 1.0
567,2,0.5,4,0.5,4,0.41764965928166864,0.0,-0.908608145518136,0.0,1.0,0.0,1.0,1.0,1.0, 1.0
568,2,0.5,4,0.5,4,0.2770168567467577,0.0,-0.960865058724765,0.0,1.0,0.0,1.0,1.0,1.0, 1.0
569,2,0.5,4,0.5,4,0.27757750314355567,0.0,-0.9607032474955987,0.0,1.0,0.0,1.0,1.0,1.0, 1.0
570,2,0.5,4,0.5,4,0.27860450695908173,0.0,-0.9604059187146271,0.0,1.0,0.0,1.0,1.0,1.0, 1.0
571,2,0.5,4,0.5,4,0.28022793408498464,0.0,-0.9599334898619077,0.0,1.0,0.0,1.0,1.0,1.0, 1.0
572,2,0.5,4,0.5,4,0.2829875635789704,0.0,-0.9591235785130289,0.0,1.0,0.0,1.0,1.0,1.0, 1.0
573,2,0.5,4,0.5,4,0.28933250792445936,0.0,-0.9572286559950777,0.0,1.0,0.0,1.0,1.0,1.0, 1.0
574,2,0.5,4,0.5,4,0.3051315620415833,0.0,-0.9523102067320622,0.0,1.0,0.0,1.0,1.0,1.0, 1.0
575,2,0.5,4,0.5,4,0.16751522855722942,0.0,-0.9858694884219813,0.0,1.0,0.0,1.0,1.0,1.0, 1.0
576,2,0.5,4,0.5,4,0.16770298123915905,0.0,-0.9858375677988226,0.0,1.0,0.0,1.0,1.0,1.0, 1.0
577,2,0.5,4,0.5,4,0.16826730697842712,0.0,-0.9857414029055631,0.0,1.0,0.0,1.0,1.0,1.0, 1.0
578,2,0.5,4,0.5,4,0.1692756547578969,0.0,-0.9855687458043122,0.0,1.0,0.0,1.0,1.0,1.0, 1.0
579,2,0.5,4,0.5,4,0.17107821328070216,0.0,-0.9852574510962516,0.0,1.0,0.0,1.0,1.0,1.0, 1.0
580,2,0.5,4,0.5,4,0.17530090873256324,0.0,-0.9845149015619508,0.0,1.0,0.0,1.0,1.0,1.0, 1.0
581,2,0.5,4,0.5,4,0.18586916841148443,0.0,-0.9825745021289852,0.0,1.0,0.0,1.0,1.0,1.0, 1.0
582,2,0.5,4,0.5,4,0.05601048647021357,0.0,-0.9984301805361104,0.0,1.0,0.0,1.0,1.0,1.0, 1.0
583,2,0.5,4,0.5,4,0.05600250790009908,0.0,-0.9984306280903543,0.0,1.0,0.0,1.0,1.0,1.0, 1.0
584,2,0.5,4,0.5,4,0.05619218608146584,0.0,-0.9984199708656603,0.0,1.0,0.0,1.0,1.0,1.0, 1.0
585,2,0.5,4,0.5,4,0.056562589002761836,0.0,-0.998399055250607,0.0,1.0,0.0,1.0,1.0,1.0, 1.0
586,2,0.5,4,0.5,4,0.057223747927084886,0.0,-0.998361378796865,0.0,1.0,0.0,1.0,1.0,1.0, 1.0
587,2,0.5,4,0.5,4,0.05875253643612609,0.0,-0.998272577737324,0.0,1.0,0.0,1.0,1.0,1.0, 1.0
588,2,0.5,4,0.5,4,0.06254736491109593,0.0,-0.9980419966828441,0.0,1.0,0.0,1.0,1.0,1.0, 1.0
589,2,0.5,4,0.5,4,-0.06340455216254648,0.0,-0.997987907123662,0.0,1.0,0.0,1.0,1.0,1.0, 1.0
590,2,0.5,4,0.5,4,-0.18812444408082257,0.0,-0.982145199824996,0.0,1.0,0.0,1.0,1.0,1.0, 1.0
591,2,0.5,4,0.5,4,-0.30797606888296203,0.0,-0.9513941039313818,0.0,1.0,0.0,1.0,1.0,1.0, 1.0
592,2,0.5,4,0.5,4,-0.4203180182601616,0.0,-0.9073768586016785,0.0,1.0,0.0,1.0,1.0,1.0, 1.0
593,2,0.5,4,0.5,4,-0.5220586075555411,0.0,-0.8529096143655372,0.0,1.0,0.0,1.0,1.0,1.0, 1.0
594,2,0.5,4,0.5,4,-0.6095826875393922,0.0,-0.792722490567949,0.0,1.0,0.0,1.0,1.0,1.0, 1.0
595,2,0.5,4,0.5,4,-0.6784257651526169,0.0,-0.7346689602651566,0.0,1.0,0.0,1.0,1.0,1.0, 1.0
596,2,0.5,4,0.5,4,-0.059131800212602524,0.0,-0.9982501841740962,0.0,1.0,0.0,1.0,1.0,1.0, 1.0
597,2,0.5,4,0.5,4,-0.17629352278211743,0.0,-0.9843376421863947,0.0,1.0,0.0,1.0,1.0,1.0, 1.0
598,2,0.5,4,0.5,4,-0.29061198985017633,0.0,-0.9568409854073564,0.0,1.0,0.0,1.0,1.0,1.0, 1.0
599,2,0.5,4,0.5,4,-0.3998957403974421,0.0,-0.916560634552882,0.0,1.0,0.0,1.0,1.0,1.0, 1.0
600,2,0.5,4,0.5,4,-0.5013811765915259,0.0,-0.8652265112441349,0.0,1.0,0.0,1.0,1.0,1.0, 1.0
601,2,0.5,4,0.5,4,-0.5924200053304064,0.0,-0.8056292803047325,0.0,1.0,0.0,1.0,1.0,1.0, 1.0
602,2,0.5,4,0.5,4,-0.6714735837130139,0.0,-0.7410284922832602,0.0,1.0,0.0,1.0,1.0,1.0, 1.0
603,2,0.5,4,0.5,4,-0.05729021796938181,0.0,-0.9983575666688869,0.0,1.0,0.0,1.0,1.0,1.0, 1.0
604,2,0.5,4,0.5,4,-0.17126580337404865,0.0,-0.9852248599150559,0.0,1.0,0.0,1.0,1.0,1.0, 1.0
605,2,0.5,4,0.5,4,-0.2832210515595662,0.0,-0.9590546574379865,0.0,1.0,0.0,1.0,1.0,1.0, 1.0
606,2,0.5,4,0.5,4,-0.3911957131567549,0.0,-0.9203075105679502,0.0,1.0,0.0,1.0,1.0,1.0, 1.0
607,2,0.5,4,0.5,4,-0.49270865832531296,0.0,-0.8701943334745808,0.0,1.0,0.0,1.0,1.0,1.0, 1.0
608,2,0.5,4,0.5,4,-0.5855952910594603,0.0,-0.8106035745597142,0.0,1.0,0.0,1.0,1.0,1.0, 1.0
609,2,0.5,4,0.5,4,-0.6688677348594496,0.0,-0.74338143188002,0.0,1.0,0.0,1.0,1.0,1.0, 1.0
610,2,0.5,4,0.5,4,-0.05643881055720819,0.0,-0.9984060600090966,0.0,1.0,0.0,1.0,1.0,1.0, 1.0
611,2,0.5,4,0.5,4,-0.16899561412283967,0.0,-0.9856168030260261,0.0,1.0,0.0,1.0,1.0,1.0, 1.0
612,2,0.5,4,0.5,4,-0.2798522118783463,0.0,-0.9600430925259538,0.0,1.0,0.0,1.0,1.0,1.0, 1.0
613,2,0.5,4,0.5,4,-0.3871839315994332,0.0,-0.922002496260832,0.0,1.0,0.0,1.0,1.0,1.0, 1.0
614,2,0.5,4,0.5,4,-0.48877165952363016,0.0,-0.8724117518961539,0.0,1.0,0.0,1.0,1.0,1.0, 1.0
615,2,0.5,4,0.5,4,-0.5826415224618359,0.0,-0.8127292638408895,0.0,1.0,0.0,1.0,1.0,1.0, 1.0
616,2,0.5,4,0.5,4,-0.6677867965702433,0.0,-0.7443526008058629,0.0,1.0,0.0,1.0,1.0,1.0, 1.0
617,2,0.5,4,0.5,4,-0.056003830798066714,0.0,-0.9984305538874206,0.0,1.0,0.0,1.0,1.0,1.0, 1.0
618,2,0.5,4,0.5,4,-0.16783883130505411,0.0,-0.9858144484162086,0.0,1.0,0.0,1.0,1.0,1.0, 1.0
619,2,0.5,4,0.5,4,-0.27804550639118153,0.0,-0.9605679030530176,0.0,1.0,0.0,1.0,1.0,1.0, 1.0
620,2,0.5,4,0.5,4,-0.3849092878198852,0.0,-0.922954408489384,0.0,1.0,0.0,1.0,1.0,1.0, 1.0
621,2,0.5,4,0.5,4,-0.48646447603892545,0.0,-0.8737003568456257,0.0,1.0,0.0,1.0,1.0,1.0, 1.0
622,2,0.5,4,0.5,4,-0.5809247145976061,0.0,-0.8139572937013895,0.0,1.0,0.0,1.0,1.0,1.0, 1.0
623,2,0.5,4,0.5,4,-0.6671778776212105,0.0,-0.7448984357701774,0.0,1.0,0.0,1.0,1.0,1.0, 1.0
624,2,0.5,4,0.5,4,-0.05584930829547858,0.0,-0.9984392093477282,0.0,1.0,0.0,1.0,1.0,1.0, 1.0
625,2,0.5,4,0.5,4,-0.16736443266852366,0.0,-0.9858950992258473,0.0,1.0,0.0,1.0,1.0,1.0, 1.0
626,2,0.5,4,0.5,4,-0.2771443154336517,0.0,-0.9608283033002372,0.0,1.0,0.0,1.0,1.0,1.0, 1.0
627,2,0.5,4,0.5,4,-0.3835948587893335,0.0,-0.9235014804050892,0.0,1.0,0.0,1.0,1.0,1.0, 1.0
628,2,0.5,4,0.5,4,-0.4850034388947692,0.0,-0.8745122436308412,0.0,1.0,0.0,1.0,1.0,1.0, 1.0
629,2,0.5,4,0.5,4,-0.5797802210525989,0.0,-0.8147729102493525,0.0,1.0,0.0,1.0,1.0,1.0, 1.0
630,2,0.5,4,0.5,4,-0.6667635418196043,0.0,-0.745269333395771,0.0,1.0,0.0,1.0,1.0,1.0, 1.0
631,2,0.5,4,0.5,4,-0.05595122445965122,0.0,-0.9984335032847533,0.0,1.0,0.0,1.0,1.0,1.0, 1.0
632,2,0.5,4,0.5,4,-0.16739020444092123,0.0,-0.9858907238924742,0.0,1.0,0.0,1.0,1.0,1.0, 1.0
633,2,0.5,4,0.5,4,-0.276858649382871,0.0,-0.9609106557125343,0.0,1.0,0.0,1.0,1.0,1.0, 1.0
634,2,0.5,4,0.5,4,-0.3829091021664966,0.0,-0.9237860247254488,0.0,1.0,0.0,1.0,1.0,1.0, 1.0
635,2,0.5,4,0.5,4,-0.4840831184527996,0.0,-0.8750220193966621,0.0,1.0,0.0,1.0,1.0,1.0, 1.0
636,2,0.5,4,0.5,4,-0.5789971199545072,0.0,-0.8153295867833975,0.0,1.0,0.0,1.0,1.0,1.0, 1.0
637,2,0.5,4,0.5,4,-0.666467684404057,0.0,-0.7455339198487849,0.0,1.0,0.0,1.0,1.0,1.0, 1.0
638,2,0.5,4,0.5,4,-0.06287749894584463,0.0,-0.9980212523420107,0.0,1.0,0.0,1.0,1.0,1.0, 1.0
639,2,0.5,4,0.5,4,-0.1867025006389746,0.0,-0.9824164983626616,0.0,1.0,0.0,1.0,1.0,1.0, 1.0
640,2,0.5,4,0.5,4,-0.30611860339921776,0.0,-0.9519933826728589,0.0,1.0,0.0,1.0,1.0,1.0, 1.0
641,2,0.5,4,0.5,4,-0.41848531787421256,0.0,-0.9082235620835432,0.0,1.0,0.0,1.0,1.0,1.0, 1.0
642,2,0.5,4,0.5,4,-0.5206081017435569,0.0,-0.8537957626967765,0.0,1.0,0.0,1.0,1.0,1.0, 1.0
643,2,0.5,4,0.5,4,-0.6087358397799195,0.0,-0.7933729749414434,0.0,1.0,0.0,1.0,1.0,1.0, 1.0
644,2,0.5,4,0.5,4,-0.6781736148074737,0.0,-0.7349017268852783,0.0,1.0,0.0,1.0,1.0,1.0, 1.0
645,2,0.5,4,0.5,4,-0.058834687678712846,0.0,-0.9982677393994801,0.0,1.0,0.0,1.0,1.0,1.0, 1.0
646,2,0.5,4,0.5,4,-0.1755078139129835,0.0,-0.984478037975193,0.0,1.0,0.0,1.0,1.0,1.0, 1.0
647,2,0.5,4,0.5,4,-0.28957807274458397,0.0,-0.9571543970465436,0.0,1.0,0.0,1.0,1.0,1.0, 1.0
648,2,0.5,4,0.5,4,-0.39884705936552295,0.0,-0.9170174607037072,0.0,1.0,0.0,1.0,1.0,1.0, 1.0
649,2,0.5,4,0.5,4,-0.5005125304411235,0.0,-0.8657292919102503,0.0,1.0,0.0,1.0,1.0,1.0, 1.0
650,2,0.5,4,0.5,4,-0.5918846014339042,0.0,-0.8060227159239547,0.0,1.0,0.0,1.0,1.0,1.0, 1.0
651,2,0.5,4,0.5,4,-0.6713062242590484,0.0,-0.7411801085236033,0.0,1.0,0.0,1.0,1.0,1.0, 1.0
652,2,0.5,4,0.5,4,-0.05723916998815784,0.0,-0.998360494720753,0.0,1.0,0.0,1.0,1.0,1.0, 1.0
653,2,0.5,4,0.5,4,-0.1711187190658449,0.0,-0.9852504168916979,0.0,1.0,0.0,1.0,1.0,1.0, 1.0
654,2,0.5,4,0.5,4,-0.2830380541067361,0.0,-0.9591086799354243,0.0,1.0,0.0,1.0,1.0,1.0, 1.0
655,2,0.5,4,0.5,4,-0.39102936122695786,0.0,-0.9203782041413395,0.0,1.0,0.0,1.0,1.0,1.0, 1.0
656,2,0.5,4,0.5,4,-0.4925893040952771,0.0,-0.8702619016657748,0.0,1.0,0.0,1.0,1.0,1.0, 1.0
657,2,0.5,4,0.5,4,-0.5855355368029251,0.0,-0.8106467388085333,0.0,1.0,0.0,1.0,1.0,1.0, 1.0
658,2,0.5,4,0.5,4,-0.6688528952328263,0.0,-0.7433947837714937,0.0,1.0,0.0,1.0,1.0,1.0, 1.0
659,2,0.5,4,0.5,4,-0.05656558428060286,0.0,-0.998398885553762,0.0,1.0,0.0,1.0,1.0,1.0, 1.0
660,2,0.5,4,0.5,4,-0.1692844290206683,0.0,-0.9855672387468782,0.0,1.0,0.0,1.0,1.0,1.0, 1.0
661,2,0.5,4,0.5,4,-0.28023889212503356,0.0,-0.9599302908756102,0.0,1.0,0.0,1.0,1.0,1.0, 1.0
662,2,0.5,4,0.5,4,-0.3876019857199928,0.0,-0.9218268279161322,0.0,1.0,0.0,1.0,1.0,1.0, 1.0
663,2,0.5,4,0.5,4,-0.48914723059413445,0.0,-0.8722012306813655,0.0,1.0,0.0,1.0,1.0,1.0, 1.0
664,2,0.5,4,0.5,4,-0.5829048145190149,0.0,-0.8125404465074664,0.0,1.0,0.0,1.0,1.0,1.0, 1.0
665,2,0.5,4,0.5,4,-0.6678799097428288,0.0,-0.7442690549538593,0.0,1.0,0.0,1.0,1.0,1.0, 1.0
666,2,0.5,4,0.5,4,-0.056192812420503405,0.0,-0.9984199356144058,0.0,1.0,0.0,1.0,1.0,1.0, 1.0
667,2,0.5,4,0.5,4,-0.16827003683933014,0.0,-0.9857409369109567,0.0,1.0,0.0,1.0,1.0,1.0, 1.0
668,2,0.5,4,0.5,4,-0.27860774726882476,0.0,-0.9604049787260532,0.0,1.0,0.0,1.0,1.0,1.0, 1.0
669,2,0.5,4,0.5,4,-0.385497040236543,0.0,-0.922709072226379,0.0,1.0,0.0,1.0,1.0,1.0, 1.0
670,2,0.5,4,0.5,4,-0.486979040588679,0.0,-0.8734136557366904,0.0,1.0,0.0,1.0,1.0,1.0, 1.0
671,2,0.5,4,0.5,4,-0.5812735655210889,0.0,-0.8137082044728321,0.0,1.0,0.0,1.0,1.0,1.0, 1.0
672,2,0.5,4,0.5,4,-0.6672965684587089,0.0,-0.7447921117487964,0.0,1.0,0.0,1.0,1.0,1.0, 1.0
673,2,0.5,4,0.5,4,-0.056002507900099065,0.0,-0.9984306280903542,0.0,1.0,0.0,1.0,1.0,1.0, 1.0
674,2,0.5,4,0.5,4,-0.1677037220460532,0.0,-0.9858374417782578,0.0,1.0,0.0,1.0,1.0,1.0, 1.0
675,2,0.5,4,0.5,4,-0.27757881202754814,0.0,-0.9607028693167181,0.0,1.0,0.0,1.0,1.0,1.0, 1.0
676,2,0.5,4,0.5,4,-0.3840429254571257,0.0,-0.9233152394530986,0.0,1.0,0.0,1.0,1.0,1.0, 1.0
677,2,0.5,4,0.5,4,-0.4853922423987533,0.0,-0.8742965006330004,0.0,1.0,0.0,1.0,1.0,1.0, 1.0
678,2,0.5,4,0.5,4,-0.580043202247827,0.0,-0.8145857128173107,0.0,1.0,0.0,1.0,1.0,1.0, 1.0
679,2,0.5,4,0.5,4,-0.6668539970892332,0.0,-0.7451883966931537,0.0,1.0,0.0,1.0,1.0,1.0, 1.0
680,2,0.5,4,0.5,4,-0.056010486470213436,0.0,-0.9984301805361104,0.0,1.0,0.0,1.0,1.0,1.0, 1.0
681,2,0.5,4,0.5,4,-0.16751522855722942,0.0,-0.9858694884219813,0.0,1.0,0.0,1.0,1.0,1.0, 1.0
682,2,0.5,4,0.5,4,-0.2770170449148573,0.0,-0.9608650044759877,0.0,1.0,0.0,1.0,1.0,1.0, 1.0
683,2,0.5,4,0.5,4,-0.38307107911336513,0.0,-0.9237188686753789,0.0,1.0,0.0,1.0,1.0,1.0, 1.0
684,2,0.5,4,0.5,4,-0.4842202254031403,0.0,-0.8749461545206837,0.0,1.0,0.0,1.0,1.0,1.0, 1.0
685,2,0.5,4,0.5,4,-0.5790914313124809,0.0,-0.8152626044290652,0.0,1.0,0.0,1.0,1.0,1.0, 1.0
686,2,0.5,4,0.5,4,-0.6665023194641415,0.0,-0.7455029564991136,0.0,1.0,0.0,1.0,1.0,1.0, 1.0
687,2,0.5,4,0.5,4,-0.9974597613010975,0.0,-0.07123218784480424,0.0,1.0,0.0,1.0,1.0,1.0, 1.0
688,2,0.5,4,0.5,4,-0.9776965414357361,0.0,-0.2100225532284567,0.0,1.0,0.0,1.0,1.0,1.0, 1.0
689,2,0.5,4,0.5,4,-0.9402517155570301,0.0,-0.3404801189380401,0.0,1.0,0.0,1.0,1.0,1.0, 1.0
690,2,0.5,4,0.5,4,-0.8884091047090673,0.0,-0.45905257070409006,0.0,1.0,0.0,1.0,1.0,1.0, 1.0
691,2,0.5,4,0.5,4,-0.8268701659023426,0.0,-0.5623928597880956,0.0,1.0,0.0,1.0,1.0,1.0, 1.0
692,2,0.5,4,0.5,4,-0.7626522146947983,0.0,-0.6468087811873918,0.0,1.0,0.0,1.0,1.0,1.0, 1.0
693,2,0.5,4,0.5,4,-0.7072496983145056,0.0,-0.7069638351670054,0.0,1.0,0.0,1.0,1.0,1.0, 1.0
694,2,0.5,4,0.5,4,-0.9963734556557999,0.0,-0.08508781854366451,0.0,1.0,0.0,1.0,1.0,1.0, 1.0
695,2,0.5,4,0.5,4,-0.9687908194861157,0.0,-0.24787970485584426,0.0,1.0,0.0,1.0,1.0,1.0, 1.0
696,2,0.5,4,0.5,4,-0.9187895020754052,0.0,-0.39474783200928276,0.0,1.0,0.0,1.0,1.0,1.0, 1.0
697,2,0.5,4,0.5,4,-0.8533415593401419,0.0,-0.5213522639280808,0.0,1.0,0.0,1.0,1.0,1.0, 1.0
698,2,0.5,4,0.5,4,-0.780118588314192,0.0,-0.6256316713264061,0.0,1.0,0.0,1.0,1.0,1.0, 1.0
699,2,0.5,4,0.5,4,-0.7078130286413461,0.0,-0.7063998276369869,0.0,1.0,0.0,1.0,1.0,1.0, 1.0
700,2,0.5,4,0.5,4,-0.6474711271693114,0.0,-0.7620899812240687,0.0,1.0,0.0,1.0,1.0,1.0, 1.0
701,2,0.5,4,0.5,4,-0.9943387060007486,0.0,-0.10625694212029971,0.0,1.0,0.0,1.0,1.0,1.0, 1.0
702,2,0.5,4,0.5,4,-0.9527935588702983,0.0,-0.3036188962750368,0.0,1.0,0.0,1.0,1.0,1.0, 1.0
703,2,0.5,4,0.5,4,-0.8823770504403864,0.0,-0.4705430276352247,0.0,1.0,0.0,1.0,1.0,1.0, 1.0
704,2,0.5,4,0.5,4,-0.797390760691223,0.0,-0.6034633168339834,0.0,1.0,0.0,1.0,1.0,1.0, 1.0
705,2,0.5,4,0.5,4,-0.7095899443124033,0.0,-0.7046148670945857,0.0,1.0,0.0,1.0,1.0,1.0, 1.0
706,2,0.5,4,0.5,4,-0.6285295693659517,0.0,-0.7777856905553425,0.0,1.0,0.0,1.0,1.0,1.0, 1.0
707,2,0.5,4,0.5,4,-0.5637092848896592,0.0,-0.8259732696214745,0.0,1.0,0.0,1.0,1.0,1.0, 1.0
708,2,0.5,4,0.5,4,-0.9903244680053526,0.0,-0.13877120764018555,0.0,1.0,0.0,1.0,1.0,1.0, 1.0
709,2,0.5,4,0.5,4,-0.9234132468538737,0.0,-0.3838072114158184,0.0,1.0,0.0,1.0,1.0,1.0, 1.0
710,2,0.5,4,0.5,4,-0.8217636781003841,0.0,-0.5698284455473666,0.0,1.0,0.0,1.0,1.0,1.0, 1.0
711,2,0.5,4,0.5,4,-0.7130305076400608,0.0,-0.7011330081907122,0.0,1.0,0.0,1.0,1.0,1.0, 1.0
712,2,0.5,4,0.5,4,-0.6120332988869001,0.0,-0.7908319929375761,0.0,1.0,0.0,1.0,1.0,1.0, 1.0
713,2,0.5,4,0.5,4,-0.5261433313697608,0.0,-0.8503959047732591,0.0,1.0,0.0,1.0,1.0,1.0, 1.0
714,2,0.5,4,0.5,4,-0.4611623177273231,0.0,-0.8873157931133446,0.0,1.0,0.0,1.0,1.0,1.0, 1.0
715,2,0.5,4,0.5,4,-0.9808233208324237,0.0,-0.19489898232483557,0.0,1.0,0.0,1.0,1.0,1.0, 1.0
716,2,0.5,4,0.5,4,-0.8629548272758905,0.0,-0.5052810763142015,0.0,1.0,0.0,1.0,1.0,1.0, 1.0
717,2,0.5,4,0.5,4,-0.7165384403285044,0.0,-0.6975476066417218,0.0,1.0,0.0,1.0,1.0,1.0, 1.0
718,2,0.5,4,0.5,4,-0.5868089640716035,0.0,-0.8097254100528224,0.0,1.0,0.0,1.0,1.0,1.0, 1.0
719,2,0.5,4,0.5,4,-0.48200814483990806,0.0,-0.8761667354493609,0.0,1.0,0.0,1.0,1.0,1.0, 1.0
720,2,0.5,4,0.5,4,-0.400919881040035,0.0,-0.9161131201914118,0.0,1.0,0.0,1.0,1.0,1.0, 1.0
721,2,0.5,4,0.5,4,-0.3431284350025491,0.0,-0.9392884951348556,0.0,1.0,0.0,1.0,1.0,1.0, 1.0
722,2,0.5,4,0.5,4,-0.9488494381499128,0.0,-0.3157289085950076,0.0,1.0,0.0,1.0,1.0,1.0, 1.0
723,2,0.5,4,0.5,4,-0.716567973539463,0.0,-0.6975172680998998,0.0,1.0,0.0,1.0,1.0,1.0, 1.0
724,2,0.5,4,0.5,4,-0.526889036291525,0.0,-0.8499340818179891,0.0,1.0,0.0,1.0,1.0,1.0, 1.0
725,2,0.5,4,0.5,4,-0.4007513891061312,0.0,-0.9161868390942461,0.0,1.0,0.0,1.0,1.0,1.0, 1.0
726,2,0.5,4,0.5,4,-0.3143377934999197,0.0,-0.9493111984895164,0.0,1.0,0.0,1.0,1.0,1.0, 1.0
727,2,0.5,4,0.5,4,-0.2534575508468594,0.0,-0.9673465097464877,0.0,1.0,0.0,1.0,1.0,1.0, 1.0
728,2,0.5,4,0.5,4,-0.21237390033429696,0.0,-0.9771884805178568,0.0,1.0,0.0,1.0,1.0,1.0, 1.0
729,2,0.5,4,0.5,4,-0.711203047549249,0.0,-0.702986646499534,0.0,1.0,0.0,1.0,1.0,1.0, 1.0
730,2,0.5,4,0.5,4,-0.32799670001012743,0.0,-0.9446788686016357,0.0,1.0,0.0,1.0,1.0,1.0, 1.0
731,2,0.5,4,0.5,4,-0.2051432794293606,0.0,-0.9787319525309099,0.0,1.0,0.0,1.0,1.0,1.0, 1.0
732,2,0.5,4,0.5,4,-0.1460742189482526,0.0,-0.9892736338135459,0.0,1.0,0.0,1.0,1.0,1.0, 1.0
733,2,0.5,4,0.5,4,-0.11072346943614492,0.0,-0.9938512531138767,0.0,1.0,0.0,1.0,1.0,1.0, 1.0
734,2,0.5,4,0.5,4,-0.08737100974185553,0.0,-0.9961758412332075,0.0,1.0,0.0,1.0,1.0,1.0, 1.0
735,2,0.5,4,0.5,4,-0.07218802336910293,0.0,-0.9973910413083035,0.0,1.0,0.0,1.0,1.0,1.0, 1.0
736,2,0.5,4,0.5,4,-0.9975091393029758,0.0,-0.07053734476882578,0.0,1.0,0.0,1.0,1.0,1.0, 1.0
737,2,0.5,4,0.5,4,-0.9781225171806845,0.0,-0.20802966467338616,0.0,1.0,0.0,1.0,1.0,1.0, 1.0
738,2,0.5,4,0.5,4,-0.9411901451450057,0.0,-0.3378773604163544,0.0,1.0,0.0,1.0,1.0,1.0, 1.0
739,2,0.5,4,0.5,4,-0.8896603801309684,0.0,-0.45662282906707685,0.0,1.0,0.0,1.0,1.0,1.0, 1.0
740,2,0.5,4,0.5,4,-0.8280193626405834,0.0,-0.5606995051650054,0.0,1.0,0.0,1.0,1.0,1.0, 1.0
741,2,0.5,4,0.5,4,-0.7632963744321223,0.0,-0.6460484848513905,0.0,1.0,0.0,1.0,1.0,1.0, 1.0
742,2,0.5,4,0.5,4,-0.7072737148898284,0.0,-0.7069398080642664,0.0,1.0,0.0,1.0,1.0,1.0, 1.0
743,2,0.5,4,0.5,4,-0.9964361217150962,0.0,-0.084350787437807,0.0,1.0,0.0,1.0,1.0,1.0, 1.0
744,2,0.5,4,0.5,4,-0.9693444578440975,0.0,-0.24570576315368095,0.0,1.0,0.0,1.0,1.0,1.0, 1.0
745,2,0.5,4,0.5,4,-0.9199490091381819,0.0,-0.3920380346161289,0.0,1.0,0.0,1.0,1.0,1.0, 1.0
746,2,0.5,4,0.5,4,-0.854721822229538,0.0,-0.5190863190304847,0.0,1.0,0.0,1.0,1.0,1.0, 1.0
747,2,0.5,4,0.5,4,-0.7811153287741764,0.0,-0.6243867736859984,0.0,1.0,0.0,1.0,1.0,1.0, 1.0
748,2,0.5,4,0.5,4,-0.7079849992219651,0.0,-0.7062274710577846,0.0,1.0,0.0,1.0,1.0,1.0, 1.0
749,2,0.5,4,0.5,4,-0.6468649826047612,0.0,-0.762604546458872,0.0,1.0,0.0,1.0,1.0,1.0, 1.0
750,2,0.5,4,0.5,4,-0.9944137863673128,0.0,-0.10555198474033636,0.0,1.0,0.0,1.0,1.0,1.0, 1.0
751,2,0.5,4,0.5,4,-0.9533896395959635,0.0,-0.3017419346247364,0.0,1.0,0.0,1.0,1.0,1.0, 1.0
752,2,0.5,4,0.5,4,-0.8834716689981092,0.0,-0.46848458894364414,0.0,1.0,0.0,1.0,1.0,1.0, 1.0
753,2,0.5,4,0.5,4,-0.7984461748106999,0.0,-0.6020661972990686,0.0,1.0,0.0,1.0,1.0,1.0, 1.0
754,2,0.5,4,0.5,4,-0.7099464435367742,0.0,-0.7042556689935028,0.0,1.0,0.0,1.0,1.0,1.0, 1.0
755,2,0.5,4,0.5,4,-0.6278687703603185,0.0,-0.7783192193478339,0.0,1.0,0.0,1.0,1.0,1.0, 1.0
756,2,0.5,4,0.5,4,-0.5623053524275018,0.0,-0.826929676956501,0.0,1.0,0.0,1.0,1.0,1.0, 1.0
757,2,0.5,4,0.5,4,-0.9904087382681447,0.0,-0.1381684883108357,0.0,1.0,0.0,1.0,1.0,1.0, 1.0
758,2,0.5,4,0.5,4,-0.923816830129486,0.0,-0.3828347742427643,0.0,1.0,0.0,1.0,1.0,1.0, 1.0
759,2,0.5,4,0.5,4,-0.8221859991354178,0.0,-0.5692189234606444,0.0,1.0,0.0,1.0,1.0,1.0, 1.0
760,2,0.5,4,0.5,4,-0.7130656390558706,0.0,-0.701097278840706,0.0,1.0,0.0,1.0,1.0,1.0, 1.0
761,2,0.5,4,0.5,4,-0.6112957782392325,0.0,-0.7914022185380142,0.0,1.0,0.0,1.0,1.0,1.0, 1.0
762,2,0.5,4,0.5,4,-0.5245311304042487,0.0,-0.8513912691805343,0.0,1.0,0.0,1.0,1.0,1.0, 1.0
763,2,0.5,4,0.5,4,-0.4590902071197246,0.0,-0.8883896564721857,0.0,1.0,0.0,1.0,1.0,1.0, 1.0
764,2,0.5,4,0.5,4,-0.9809298140187092,0.0,-0.1943622905020945,0.0,1.0,0.0,1.0,1.0,1.0, 1.0
765,2,0.5,4,0.5,4,-0.8626151154683993,0.0,-0.5058608134313628,0.0,1.0,0.0,1.0,1.0,1.0, 1.0
766,2,0.5,4,0.5,4,-0.7153280984863778,0.0,-0.6987887459854106,0.0,1.0,0.0,1.0,1.0,1.0, 1.0
767,2,0.5,4,0.5,4,-0.5851724753064094,0.0,-0.8109088568660289,0.0,1.0,0.0,1.0,1.0,1.0, 1.0
768,2,0.5,4,0.5,4,-0.4800621326883558,0.0,-0.8772344890385395,0.0,1.0,0.0,1.0,1.0,1.0, 1.0
769,2,0.5,4,0.5,4,-0.39864582331859244,0.0,-0.9171049599422313,0.0,1.0,0.0,1.0,1.0,1.0, 1.0
770,2,0.5,4,0.5,4,-0.3408140062986947,0.0,-0.9401307425622424,0.0,1.0,0.0,1.0,1.0,1.0, 1.0
771,2,0.5,4,0.5,4,-0.9490056077275721,0.0,-0.3152591894007556,0.0,1.0,0.0,1.0,1.0,1.0, 1.0
772,2,0.5,4,0.5,4,-0.7142886882272416,0.0,-0.6998511769445033,0.0,1.0,0.0,1.0,1.0,1.0, 1.0
773,2,0.5,4,0.5,4,-0.5234680882660229,0.0,-0.8520452808196963,0.0,1.0,0.0,1.0,1.0,1.0, 1.0
774,2,0.5,4,0.5,4,-0.3978086469803323,0.0,-0.9174684083867287,0.0,1.0,0.0,1.0,1.0,1.0, 1.0
775,2,0.5,4,0.5,4,-0.3119594012176944,0.0,-0.9500954330970639,0.0,1.0,0.0,1.0,1.0,1.0, 1.0
776,2,0.5,4,0.5,4,-0.2513706733551318,0.0,-0.9678908949757651,0.0,1.0,0.0,1.0,1.0,1.0, 1.0
777,2,0.5,4,0.5,4,-0.2105166876655152,0.0,-0.9775902639727647,0.0,1.0,0.0,1.0,1.0,1.0, 1.0
778,2,0.5,4,0.5,4,-0.7099324582587535,0.0,-0.7042697670003186,0.0,1.0,0.0,1.0,1.0,1.0, 1.0
779,2,0.5,4,0.5,4,-0.3240780288261199,0.0,-0.9460303542868889,0.0,1.0,0.0,1.0,1.0,1.0, 1.0
780,2,0.5,4,0.5,4,-0.20226877979199226,0.0,-0.9793300468797321,0.0,1.0,0.0,1.0,1.0,1.0, 1.0
781,2,0.5,4,0.5,4,-0.14434516738113762,0.0,-0.9895273986372037,0.0,1.0,0.0,1.0,1.0,1.0, 1.0
782,2,0.5,4,0.5,4,-0.10966231437883593,0.0,-0.9939689013269365,0.0,1.0,0.0,1.0,1.0,1.0, 1.0
783,2,0.5,4,0.5,4,-0.08659528154822936,0.0,-0.9962435732357738,0.0,1.0,0.0,1.0,1.0,1.0, 1.0
784,2,0.5,4,0.5,4,-0.07152172192431162,0.0,-0.9974390423945623,0.0,1.0,0.0,1.0,1.0,1.0, 1.0
785,2,0.5,4,0.5,4,-0.7455339198487849,0.0,-0.6664676844040568,0.0,1.0,0.0,1.0,1.0,1.0, 1.0
786,2,0.5,4,0.5,4,-0.745269333395771,0.0,-0.6667635418196043,0.0,1.0,0.0,1.0,1.0,1.0, 1.0
787,2,0.5,4,0.5,4,-0.7448996675313927,0.0,-0.6671765023677171,0.0,1.0,0.0,1.0,1.0,1.0, 1.0
788,2,0.5,4,0.5,4,-0.7443562086876745,0.0,-0.6677827750010562,0.0,1.0,0.0,1.0,1.0,1.0, 1.0
789,2,0.5,4,0.5,4,-0.7433899068758214,0.0,-0.6688583156058968,0.0,1.0,0.0,1.0,1.0,1.0, 1.0
790,2,0.5,4,0.5,4,-0.7410581338820335,0.0,-0.6714408702240863,0.0,1.0,0.0,1.0,1.0,1.0, 1.0
791,2,0.5,4,0.5,4,-0.7347770574412504,0.0,-0.6783086877358843,0.0,1.0,0.0,1.0,1.0,1.0, 1.0
792,2,0.5,4,0.5,4,-0.8153295867833977,0.0,-0.5789971199545072,0.0,1.0,0.0,1.0,1.0,1.0, 1.0
793,2,0.5,4,0.5,4,-0.8147729102493526,0.0,-0.579780221052599,0.0,1.0,0.0,1.0,1.0,1.0, 1.0
794,2,0.5,4,0.5,4,-0.8139572937013894,0.0,-0.5809247145976063,0.0,1.0,0.0,1.0,1.0,1.0, 1.0
795,2,0.5,4,0.5,4,-0.8127313042183514,0.0,-0.5826386763196705,0.0,1.0,0.0,1.0,1.0,1.0, 1.0
796,2,0.5,4,0.5,4,-0.8106153409104788,0.0,-0.5855790032784545,0.0,1.0,0.0,1.0,1.0,1.0, 1.0
797,2,0.5,4,0.5,4,-0.8056826866739798,0.0,-0.5923473713909749,0.0,1.0,0.0,1.0,1.0,1.0, 1.0
798,2,0.5,4,0.5,4,-0.7929123285236402,0.0,-0.6093357360890781,0.0,1.0,0.0,1.0,1.0,1.0, 1.0
799,2,0.5,4,0.5,4,-0.8750220193966621,0.0,-0.4840831184527996,0.0,1.0,0.0,1.0,1.0,1.0, 1.0
800,2,0.5,4,0.5,4,-0.8745122436308412,0.0,-0.4850034388947694,0.0,1.0,0.0,1.0,1.0,1.0, 1.0
801,2,0.5,4,0.5,4,-0.8737005679833371,0.0,-0.4864640968309934,0.0,1.0,0.0,1.0,1.0,1.0, 1.0
802,2,0.5,4,0.5,4,-0.8724166032708822,0.0,-0.4887630001721653,0.0,1.0,0.0,1.0,1.0,1.0, 1.0
803,2,0.5,4,0.5,4,-0.8702133202708224,0.0,-0.4926751234061153,0.0,1.0,0.0,1.0,1.0,1.0, 1.0
804,2,0.5,4,0.5,4,-0.8653034942851403,0.0,-0.5012483045137669,0.0,1.0,0.0,1.0,1.0,1.0, 1.0
805,2,0.5,4,0.5,4,-0.8531966211612961,0.0,-0.5215894224760964,0.0,1.0,0.0,1.0,1.0,1.0, 1.0
806,2,0.5,4,0.5,4,-0.9237860247254488,0.0,-0.3829091021664966,0.0,1.0,0.0,1.0,1.0,1.0, 1.0
807,2,0.5,4,0.5,4,-0.9235015677584935,0.0,-0.3835946484866607,0.0,1.0,0.0,1.0,1.0,1.0, 1.0
808,2,0.5,4,0.5,4,-0.9229551154793844,0.0,-0.38490759256013196,0.0,1.0,0.0,1.0,1.0,1.0, 1.0
809,2,0.5,4,0.5,4,-0.9220064803813515,0.0,-0.38717444406209534,0.0,1.0,0.0,1.0,1.0,1.0, 1.0
810,2,0.5,4,0.5,4,-0.9203272031441697,0.0,-0.39114938214553013,0.0,1.0,0.0,1.0,1.0,1.0, 1.0
811,2,0.5,4,0.5,4,-0.9166477011328501,0.0,-0.39969612458449144,0.0,1.0,0.0,1.0,1.0,1.0, 1.0
812,2,0.5,4,0.5,4,-0.9077140157741879,0.0,-0.419589401161537,0.0,1.0,0.0,1.0,1.0,1.0, 1.0
813,2,0.5,4,0.5,4,-0.960910721054109,0.0,-0.27685842259767446,0.0,1.0,0.0,1.0,1.0,1.0, 1.0
814,2,0.5,4,0.5,4,-0.9608285003704258,0.0,-0.2771436322124663,0.0,1.0,0.0,1.0,1.0,1.0, 1.0
815,2,0.5,4,0.5,4,-0.9605687610256602,0.0,-0.27804254232334313,0.0,1.0,0.0,1.0,1.0,1.0, 1.0
816,2,0.5,4,0.5,4,-0.9600467504066208,0.0,-0.2798396630817143,0.0,1.0,0.0,1.0,1.0,1.0, 1.0
817,2,0.5,4,0.5,4,-0.9590706989244362,0.0,-0.28316672556039024,0.0,1.0,0.0,1.0,1.0,1.0, 1.0
818,2,0.5,4,0.5,4,-0.9569130956593538,0.0,-0.29037446057742816,0.0,1.0,0.0,1.0,1.0,1.0, 1.0
819,2,0.5,4,0.5,4,-0.9516830337185181,0.0,-0.3070820791454915,0.0,1.0,0.0,1.0,1.0,1.0, 1.0
820,2,0.5,4,0.5,4,-0.985890723892474,0.0,-0.16739020444092123,0.0,1.0,0.0,1.0,1.0,1.0, 1.0
821,2,0.5,4,0.5,4,-0.9858951399304376,0.0,-0.16736419288946744,0.0,1.0,0.0,1.0,1.0,1.0, 1.0
822,2,0.5,4,0.5,4,-0.9858148487538919,0.0,-0.1678364798735402,0.0,1.0,0.0,1.0,1.0,1.0, 1.0
823,2,0.5,4,0.5,4,-0.9856184713224252,0.0,-0.16898588399048597,0.0,1.0,0.0,1.0,1.0,1.0, 1.0
824,2,0.5,4,0.5,4,-0.9852325937928549,0.0,-0.1712213074596832,0.0,1.0,0.0,1.0,1.0,1.0, 1.0
825,2,0.5,4,0.5,4,-0.9843743254388213,0.0,-0.17608857832598165,0.0,1.0,0.0,1.0,1.0,1.0, 1.0
826,2,0.5,4,0.5,4,-0.9822949673630115,0.0,-0.18734085804570336,0.0,1.0,0.0,1.0,1.0,1.0, 1.0
827,2,0.5,4,0.5,4,-0.9984335032847533,0.0,-0.05595122445965122,0.0,1.0,0.0,1.0,1.0,1.0, 1.0
828,2,0.5,4,0.5,4,-0.9984392093477282,0.0,-0.05584930829547858,0.0,1.0,0.0,1.0,1.0,1.0, 1.0
829,2,0.5,4,0.5,4,-0.9984305817510234,0.0,-0.05600333404640089,0.0,1.0,0.0,1.0,1.0,1.0, 1.0
830,2,0.5,4,0.5,4,-0.9984062319361101,0.0,-0.05643576907545673,0.0,1.0,0.0,1.0,1.0,1.0, 1.0
831,2,0.5,4,0.5,4,-0.9983585484162009,0.0,-0.05727310716467607,0.0,1.0,0.0,1.0,1.0,1.0, 1.0
832,2,0.5,4,0.5,4,-0.9982550715585743,0.0,-0.05904923460626265,0.0,1.0,0.0,1.0,1.0,1.0, 1.0
833,2,0.5,4,0.5,4,-0.9980080330318976,0.0,-0.0630869717437974,0.0,1.0,0.0,1.0,1.0,1.0, 1.0
834,2,0.5,4,0.5,4,-0.7455029564991136,0.0,-0.6665023194641418,0.0,1.0,0.0,1.0,1.0,1.0, 1.0
835,2,0.5,4,0.5,4,-0.7451883966931537,0.0,-0.6668539970892332,0.0,1.0,0.0,1.0,1.0,1.0, 1.0
836,2,0.5,4,0.5,4,-0.7447931429150225,0.0,-0.667295417537662,0.0,1.0,0.0,1.0,1.0,1.0, 1.0
837,2,0.5,4,0.5,4,-0.7442720891706119,0.0,-0.6678765284703547,0.0,1.0,0.0,1.0,1.0,1.0, 1.0
838,2,0.5,4,0.5,4,-0.7434039609931584,0.0,-0.6688426950933101,0.0,1.0,0.0,1.0,1.0,1.0, 1.0
839,2,0.5,4,0.5,4,-0.741212351968394,0.0,-0.6712706229900736,0.0,1.0,0.0,1.0,1.0,1.0, 1.0
840,2,0.5,4,0.5,4,-0.7350207067109675,0.0,-0.678044659816822,0.0,1.0,0.0,1.0,1.0,1.0, 1.0
841,2,0.5,4,0.5,4,-0.8152626044290651,0.0,-0.5790914313124809,0.0,1.0,0.0,1.0,1.0,1.0, 1.0
842,2,0.5,4,0.5,4,-0.8145857128173108,0.0,-0.580043202247827,0.0,1.0,0.0,1.0,1.0,1.0, 1.0
843,2,0.5,4,0.5,4,-0.8137082044728321,0.0,-0.5812735655210891,0.0,1.0,0.0,1.0,1.0,1.0, 1.0
844,2,0.5,4,0.5,4,-0.812542164065301,0.0,-0.582902420320998,0.0,1.0,0.0,1.0,1.0,1.0, 1.0
845,2,0.5,4,0.5,4,-0.8106575878811142,0.0,-0.5855205164729699,0.0,1.0,0.0,1.0,1.0,1.0, 1.0
846,2,0.5,4,0.5,4,-0.8060763885613043,0.0,-0.5918115036090168,0.0,1.0,0.0,1.0,1.0,1.0, 1.0
847,2,0.5,4,0.5,4,-0.7935870227707246,0.0,-0.6084567669850486,0.0,1.0,0.0,1.0,1.0,1.0, 1.0
848,2,0.5,4,0.5,4,-0.8749461545206837,0.0,-0.4842202254031402,0.0,1.0,0.0,1.0,1.0,1.0, 1.0
849,2,0.5,4,0.5,4,-0.8742965006330004,0.0,-0.4853922423987533,0.0,1.0,0.0,1.0,1.0,1.0, 1.0
850,2,0.5,4,0.5,4,-0.8734138328158525,0.0,-0.4869787229909762,0.0,1.0,0.0,1.0,1.0,1.0, 1.0
851,2,0.5,4,0.5,4,-0.8722050474839745,0.0,-0.48914042476928626,0.0,1.0,0.0,1.0,1.0,1.0, 1.0
852,2,0.5,4,0.5,4,-0.8702774946186972,0.0,-0.4925617548695835,0.0,1.0,0.0,1.0,1.0,1.0, 1.0
853,2,0.5,4,0.5,4,-0.8658076995501592,0.0,-0.5003768853570888,0.0,1.0,0.0,1.0,1.0,1.0, 1.0
854,2,0.5,4,0.5,4,-0.8541284050477277,0.0,-0.5200621767544964,0.0,1.0,0.0,1.0,1.0,1.0, 1.0
855,2,0.5,4,0.5,4,-0.923718868675379,0.0,-0.38307107911336497,0.0,1.0,0.0,1.0,1.0,1.0, 1.0
856,2,0.5,4,0.5,4,-0.9233153123827245,0.0,-0.384042750119817,0.0,1.0,0.0,1.0,1.0,1.0, 1.0
857,2,0.5,4,0.5,4,-0.9227096659160425,0.0,-0.3854956192035194,0.0,1.0,0.0,1.0,1.0,1.0, 1.0
858,2,0.5,4,0.5,4,-0.9218299603023035,0.0,-0.3875945359380774,0.0,1.0,0.0,1.0,1.0,1.0, 1.0
859,2,0.5,4,0.5,4,-0.9203957662175217,0.0,-0.39098802223196183,0.0,1.0,0.0,1.0,1.0,1.0, 1.0
860,2,0.5,4,0.5,4,-0.9171076506740559,0.0,-0.39863963309625133,0.0,1.0,0.0,1.0,1.0,1.0, 1.0
861,2,0.5,4,0.5,4,-0.908608145518136,0.0,-0.41764965928166864,0.0,1.0,0.0,1.0,1.0,1.0, 1.0
862,2,0.5,4,0.5,4,-0.960865058724765,0.0,-0.2770168567467577,0.0,1.0,0.0,1.0,1.0,1.0, 1.0
863,2,0.5,4,0.5,4,-0.9607032474955987,0.0,-0.27757750314355567,0.0,1.0,0.0,1.0,1.0,1.0, 1.0
864,2,0.5,4,0.5,4,-0.9604059187146271,0.0,-0.27860450695908173,0.0,1.0,0.0,1.0,1.0,1.0, 1.0
865,2,0.5,4,0.5,4,-0.9599334898619077,0.0,-0.28022793408498464,0.0,1.0,0.0,1.0,1.0,1.0, 1.0
866,2,0.5,4,0.5,4,-0.9591235785130289,0.0,-0.2829875635789704,0.0,1.0,0.0,1.0,1.0,1.0, 1.0
867,2,0.5,4,0.5,4,-0.9572286559950777,0.0,-0.28933250792445936,0.0,1.0,0.0,1.0,1.0,1.0, 1.0
868,2,0.5,4,0.5,4,-0.9523102067320622,0.0,-0.3051315620415833,0.0,1.0,0.0,1.0,1.0,1.0, 1.0
869,2,0.5,4,0.5,4,-0.9858694884219813,0.0,-0.16751522855722942,0.0,1.0,0.0,1.0,1.0,1.0, 1.0
870,2,0.5,4,0.5,4,-0.9858375677988226,0.0,-0.16770298123915905,0.0,1.0,0.0,1.0,1.0,1.0, 1.0
871,2,0.5,4,0.5,4,-0.9857414029055631,0.0,-0.16826730697842712,0.0,1.0,0.0,1.0,1.0,1.0, 1.0
872,2,0.5,4,0.5,4,-0.9855687458043122,0.0,-0.1692756547578969,0.0,1.0,0.0,1.0,1.0,1.0, 1.0
873,2,0.5,4,0.5,4,-0.9852574510962516,0.0,-0.17107821328070216,0.0,1.0,0.0,1.0,1.0,1.0, 1.0
874,2,0.5,4,0.5,4,-0.9845149015619508,0.0,-0.17530090873256324,0.0,1.0,0.0,1.0,1.0,1.0, 1.0
875,2,0.5,4,0.5,4,-0.9825745021289852,0.0,-0.18586916841148443,0.0,1.0,0.0,1.0,1.0,1.0, 1.0
876,2,0.5,4,0.5,4,-0.9984301805361104,0.0,-0.05601048647021357,0.0,1.0,0.0,1.0,1.0,1.0, 1.0
877,2,0.5,4,0.5,4,-0.9984306280903543,0.0,-0.05600250790009908,0.0,1.0,0.0,1.0,1.0,1.0, 1.0
878,2,0.5,4,0.5,4,-0.9984199708656603,0.0,-0.05619218608146584,0.0,1.0,0.0,1.0,1.0,1.0, 1.0
879,2,0.5,4,0.5,4,-0.998399055250607,0.0,-0.056562589002761836,0.0,1.0,0.0,1.0,1.0,1.0, 1.0
880,2,0.5,4,0.5,4,-0.998361378796865,0.0,-0.057223747927084886,0.0,1.0,0.0,1.0,1.0,1.0, 1.0
881,2,0.5,4,0.5,4,-0.998272577737324,0.0,-0.05875253643612609,0.0,1.0,0.0,1.0,1.0,1.0, 1.0
882,2,0.5,4,0.5,4,-0.9980419966828441,0.0,-0.06254736491109593,0.0,1.0,0.0,1.0,1.0,1.0, 1.0
883,2,0.5,4,0.5,4,-0.9980080330318976,0.0,0.0630869717437974,0.0,1.0,-0.0,1.0,1.0,1.0, 1.0
884,2,0.5,4,0.5,4,-0.9822949673630115,0.0,0.18734085804570325,0.0,1.0,-0.0,1.0,1.0,1.0, 1.0
885,2,0.5,4,0.5,4,-0.9516830337185181,0.0,0.3070820791454915,0.0,1.0,-0.0,1.0,1.0,1.0, 1.0
886,2,0.5,4,0.5,4,-0.9077140157741879,0.0,0.419589401161537,0.0,1.0,-0.0,1.0,1.0,1.0, 1.0
887,2,0.5,4,0.5,4,-0.8531966211612962,0.0,0.5215894224760963,0.0,1.0,-0.0,1.0,1.0,1.0, 1.0
888,2,0.5,4,0.5,4,-0.7929123285236402,0.0,0.6093357360890781,0.0,1.0,-0.0,1.0,1.0,1.0, 1.0
889,2,0.5,4,0.5,4,-0.7347770574412504,0.0,0.6783086877358843,0.0,1.0,-0.0,1.0,1.0,1.0, 1.0
890,2,0.5,4,0.5,4,-0.9982550715585743,0.0,0.05904923460626265,0.0,1.0,-0.0,1.0,1.0,1.0, 1.0
891,2,0.5,4,0.5,4,-0.9843743254388213,0.0,0.17608857832598176,0.0,1.0,-0.0,1.0,1.0,1.0, 1.0
892,2,0.5,4,0.5,4,-0.9569130956593538,0.0,0.29037446057742816,0.0,1.0,-0.0,1.0,1.0,1.0, 1.0
893,2,0.5,4,0.5,4,-0.9166477011328499,0.0,0.39969612458449144,0.0,1.0,-0.0,1.0,1.0,1.0, 1.0
894,2,0.5,4,0.5,4,-0.8653034942851403,0.0,0.501248304513767,0.0,1.0,-0.0,1.0,1.0,1.0, 1.0
895,2,0.5,4,0.5,4,-0.8056826866739798,0.0,0.5923473713909749,0.0,1.0,-0.0,1.0,1.0,1.0, 1.0
896,2,0.5,4,0.5,4,-0.7410581338820335,0.0,0.6714408702240863,0.0,1.0,-0.0,1.0,1.0,1.0, 1.0
897,2,0.5,4,0.5,4,-0.9983585484162009,0.0,0.05727310716467607,0.0,1.0,-0.0,1.0,1.0,1.0, 1.0
898,2,0.5,4,0.5,4,-0.9852325937928549,0.0,0.17122130745968325,0.0,1.0,-0.0,1.0,1.0,1.0, 1.0
899,2,0.5,4,0.5,4,-0.9590706989244362,0.0,0.2831667255603902,0.0,1.0,-0.0,1.0,1.0,1.0, 1.0
900,2,0.5,4,0.5,4,-0.9203272031441698,0.0,0.39114938214552997,0.0,1.0,-0.0,1.0,1.0,1.0, 1.0
901,2,0.5,4,0.5,4,-0.8702133202708223,0.0,0.4926751234061154,0.0,1.0,-0.0,1.0,1.0,1.0, 1.0
902,2,0.5,4,0.5,4,-0.8106153409104788,0.0,0.5855790032784545,0.0,1.0,-0.0,1.0,1.0,1.0, 1.0
903,2,0.5,4,0.5,4,-0.7433899068758213,0.0,0.6688583156058969,0.0,1.0,-0.0,1.0,1.0,1.0, 1.0
904,2,0.5,4,0.5,4,-0.9984062319361101,0.0,0.056435769075456735,0.0,1.0,-0.0,1.0,1.0,1.0, 1.0
905,2,0.5,4,0.5,4,-0.985618471322425,0.0,0.168985883990486,0.0,1.0,-0.0,1.0,1.0,1.0, 1.0
906,2,0.5,4,0.5,4,-0.960046750406621,0.0,0.2798396630817143,0.0,1.0,-0.0,1.0,1.0,1.0, 1.0
907,2,0.5,4,0.5,4,-0.9220064803813515,0.0,0.3871744440620953,0.0,1.0,-0.0,1.0,1.0,1.0, 1.0
908,2,0.5,4,0.5,4,-0.8724166032708822,0.0,0.48876300017216534,0.0,1.0,-0.0,1.0,1.0,1.0, 1.0
909,2,0.5,4,0.5,4,-0.8127313042183514,0.0,0.5826386763196703,0.0,1.0,-0.0,1.0,1.0,1.0, 1.0
910,2,0.5,4,0.5,4,-0.7443562086876744,0.0,0.6677827750010564,0.0,1.0,-0.0,1.0,1.0,1.0, 1.0
911,2,0.5,4,0.5,4,-0.9984305817510234,0.0,0.05600333404640089,0.0,1.0,-0.0,1.0,1.0,1.0, 1.0
912,2,0.5,4,0.5,4,-0.9858148487538919,0.0,0.1678364798735402,0.0,1.0,-0.0,1.0,1.0,1.0, 1.0
913,2,0.5,4,0.5,4,-0.9605687610256602,0.0,0.27804254232334313,0.0,1.0,-0.0,1.0,1.0,1.0, 1.0
914,2,0.5,4,0.5,4,-0.9229551154793844,0.0,0.38490759256013185,0.0,1.0,-0.0,1.0,1.0,1.0, 1.0
915,2,0.5,4,0.5,4,-0.8737005679833371,0.0,0.48646409683099334,0.0,1.0,-0.0,1.0,1.0,1.0, 1.0
916,2,0.5,4,0.5,4,-0.8139572937013895,0.0,0.5809247145976061,0.0,1.0,-0.0,1.0,1.0,1.0, 1.0
917,2,0.5,4,0.5,4,-0.7448996675313928,0.0,0.6671765023677171,0.0,1.0,-0.0,1.0,1.0,1.0, 1.0
918,2,0.5,4,0.5,4,-0.9984392093477282,0.0,0.05584930829547858,0.0,1.0,-0.0,1.0,1.0,1.0, 1.0
919,2,0.5,4,0.5,4,-0.9858951399304376,0.0,0.16736419288946763,0.0,1.0,-0.0,1.0,1.0,1.0, 1.0
920,2,0.5,4,0.5,4,-0.9608285003704258,0.0,0.2771436322124663,0.0,1.0,-0.0,1.0,1.0,1.0, 1.0
921,2,0.5,4,0.5,4,-0.9235015677584935,0.0,0.38359464848666075,0.0,1.0,-0.0,1.0,1.0,1.0, 1.0
922,2,0.5,4,0.5,4,-0.8745122436308412,0.0,0.4850034388947692,0.0,1.0,-0.0,1.0,1.0,1.0, 1.0
923,2,0.5,4,0.5,4,-0.8147729102493525,0.0,0.5797802210525989,0.0,1.0,-0.0,1.0,1.0,1.0, 1.0
924,2,0.5,4,0.5,4,-0.745269333395771,0.0,0.6667635418196043,0.0,1.0,-0.0,1.0,1.0,1.0, 1.0
925,2,0.5,4,0.5,4,-0.9984335032847533,0.0,0.05595122445965122,0.0,1.0,-0.0,1.0,1.0,1.0, 1.0
926,2,0.5,4,0.5,4,-0.9858907238924742,0.0,0.16739020444092123,0.0,1.0,-0.0,1.0,1.0,1.0, 1.0
927,2,0.5,4,0.5,4,-0.960910721054109,0.0,0.2768584225976743,0.0,1.0,-0.0,1.0,1.0,1.0, 1.0
928,2,0.5,4,0.5,4,-0.9237860247254488,0.0,0.3829091021664966,0.0,1.0,-0.0,1.0,1.0,1.0, 1.0
929,2,0.5,4,0.5,4,-0.8750220193966621,0.0,0.4840831184527996,0.0,1.0,-0.0,1.0,1.0,1.0, 1.0
930,2,0.5,4,0.5,4,-0.8153295867833975,0.0,0.5789971199545072,0.0,1.0,-0.0,1.0,1.0,1.0, 1.0
931,2,0.5,4,0.5,4,-0.7455339198487849,0.0,0.666467684404057,0.0,1.0,-0.0,1.0,1.0,1.0, 1.0
932,2,0.5,4,0.5,4,-0.9980419966828441,0.0,0.06254736491109593,0.0,1.0,-0.0,1.0,1.0,1.0, 1.0
933,2,0.5,4,0.5,4,-0.9825745021289852,0.0,0.18586916841148443,0.0,1.0,-0.0,1.0,1.0,1.0, 1.0
934,2,0.5,4,0.5,4,-0.9523102067320625,0.0,0.30513156204158326,0.0,1.0,-0.0,1.0,1.0,1.0, 1.0
935,2,0.5,4,0.5,4,-0.9086081455181358,0.0,0.41764965928166864,0.0,1.0,-0.0,1.0,1.0,1.0, 1.0
936,2,0.5,4,0.5,4,-0.8541284050477277,0.0,0.5200621767544964,0.0,1.0,-0.0,1.0,1.0,1.0, 1.0
937,2,0.5,4,0.5,4,-0.7935870227707246,0.0,0.6084567669850486,0.0,1.0,-0.0,1.0,1.0,1.0, 1.0
938,2,0.5,4,0.5,4,-0.7350207067109674,0.0,0.6780446598168223,0.0,1.0,-0.0,1.0,1.0,1.0, 1.0
939,2,0.5,4,0.5,4,-0.998272577737324,0.0,0.05875253643612609,0.0,1.0,-0.0,1.0,1.0,1.0, 1.0
940,2,0.5,4,0.5,4,-0.9845149015619508,0.0,0.17530090873256324,0.0,1.0,-0.0,1.0,1.0,1.0, 1.0
941,2,0.5,4,0.5,4,-0.9572286559950777,0.0,0.2893325079244595,0.0,1.0,-0.0,1.0,1.0,1.0, 1.0
942,2,0.5,4,0.5,4,-0.9171076506740559,0.0,0.3986396330962514,0.0,1.0,-0.0,1.0,1.0,1.0, 1.0
943,2,0.5,4,0.5,4,-0.8658076995501593,0.0,0.5003768853570886,0.0,1.0,-0.0,1.0,1.0,1.0, 1.0
944,2,0.5,4,0.5,4,-0.8060763885613045,0.0,0.5918115036090167,0.0,1.0,-0.0,1.0,1.0,1.0, 1.0
945,2,0.5,4,0.5,4,-0.7412123519683941,0.0,0.6712706229900735,0.0,1.0,-0.0,1.0,1.0,1.0, 1.0
946,2,0.5,4,0.5,4,-0.998361378796865,0.0,0.057223747927084886,0.0,1.0,-0.0,1.0,1.0,1.0, 1.0
947,2,0.5,4,0.5,4,-0.9852574510962516,0.0,0.17107821328070216,0.0,1.0,-0.0,1.0,1.0,1.0, 1.0
948,2,0.5,4,0.5,4,-0.9591235785130289,0.0,0.2829875635789704,0.0,1.0,-0.0,1.0,1.0,1.0, 1.0
949,2,0.5,4,0.5,4,-0.9203957662175217,0.0,0.39098802223196183,0.0,1.0,-0.0,1.0,1.0,1.0, 1.0
950,2,0.5,4,0.5,4,-0.870277494618697,0.0,0.4925617548695835,0.0,1.0,-0.0,1.0,1.0,1.0, 1.0
951,2,0.5,4,0.5,4,-0.8106575878811142,0.0,0.58552051647297,0.0,1.0,-0.0,1.0,1.0,1.0, 1.0
952,2,0.5,4,0.5,4,-0.7434039609931584,0.0,0.66884269509331,0.0,1.0,-0.0,1.0,1.0,1.0, 1.0
953,2,0.5,4,0.5,4,-0.998399055250607,0.0,0.05656258900276184,0.0,1.0,-0.0,1.0,1.0,1.0, 1.0
954,2,0.5,4,0.5,4,-0.9855687458043124,0.0,0.1692756547578969,0.0,1.0,-0.0,1.0,1.0,1.0, 1.0
955,2,0.5,4,0.5,4,-0.959933489861908,0.0,0.28022793408498453,0.0,1.0,-0.0,1.0,1.0,1.0, 1.0
956,2,0.5,4,0.5,4,-0.9218299603023034,0.0,0.38759453593807736,0.0,1.0,-0.0,1.0,1.0,1.0, 1.0
957,2,0.5,4,0.5,4,-0.8722050474839745,0.0,0.48914042476928626,0.0,1.0,-0.0,1.0,1.0,1.0, 1.0
958,2,0.5,4,0.5,4,-0.812542164065301,0.0,0.582902420320998,0.0,1.0,-0.0,1.0,1.0,1.0, 1.0
959,2,0.5,4,0.5,4,-0.7442720891706119,0.0,0.6678765284703548,0.0,1.0,-0.0,1.0,1.0,1.0, 1.0
960,2,0.5,4,0.5,4,-0.9984199708656603,0.0,0.05619218608146584,0.0,1.0,-0.0,1.0,1.0,1.0, 1.0
961,2,0.5,4,0.5,4,-0.9857414029055631,0.0,0.1682673069784273,0.0,1.0,-0.0,1.0,1.0,1.0, 1.0
962,2,0.5,4,0.5,4,-0.9604059187146271,0.0,0.27860450695908157,0.0,1.0,-0.0,1.0,1.0,1.0, 1.0
963,2,0.5,4,0.5,4,-0.9227096659160425,0.0,0.3854956192035194,0.0,1.0,-0.0,1.0,1.0,1.0, 1.0
964,2,0.5,4,0.5,4,-0.8734138328158525,0.0,0.4869787229909762,0.0,1.0,-0.0,1.0,1.0,1.0, 1.0
965,2,0.5,4,0.5,4,-0.8137082044728321,0.0,0.5812735655210889,0.0,1.0,-0.0,1.0,1.0,1.0, 1.0
966,2,0.5,4,0.5,4,-0.7447931429150225,0.0,0.667295417537662,0.0,1.0,-0.0,1.0,1.0,1.0, 1.0
967,2,0.5,4,0.5,4,-0.9984306280903542,0.0,0.056002507900099065,0.0,1.0,-0.0,1.0,1.0,1.0, 1.0
968,2,0.5,4,0.5,4,-0.9858375677988226,0.0,0.16770298123915905,0.0,1.0,-0.0,1.0,1.0,1.0, 1.0
969,2,0.5,4,0.5,4,-0.9607032474955987,0.0,0.27757750314355567,0.0,1.0,-0.0,1.0,1.0,1.0, 1.0
970,2,0.5,4,0.5,4,-0.9233153123827245,0.0,0.3840427501198168,0.0,1.0,-0.0,1.0,1.0,1.0, 1.0
971,2,0.5,4,0.5,4,-0.8742965006330004,0.0,0.4853922423987533,0.0,1.0,-0.0,1.0,1.0,1.0, 1.0
972,2,0.5,4,0.5,4,-0.8145857128173107,0.0,0.580043202247827,0.0,1.0,-0.0,1.0,1.0,1.0, 1.0
973,2,0.5,4,0.5,4,-0.7451883966931537,0.0,0.6668539970892332,0.0,1.0,-0.0,1.0,1.0,1.0, 1.0
974,2,0.5,4,0.5,4,-0.9984301805361104,0.0,0.056010486470213436,0.0,1.0,-0.0,1.0,1.0,1.0, 1.0
975,2,0.5,4,0.5,4,-0.9858694884219813,0.0,0.16751522855722942,0.0,1.0,-0.0,1.0,1.0,1.0, 1.0
976,2,0.5,4,0.5,4,-0.960865058724765,0.0,0.27701685674675774,0.0,1.0,-0.0,1.0,1.0,1.0, 1.0
977,2,0.5,4,0.5,4,-0.9237188686753789,0.0,0.38307107911336513,0.0,1.0,-0.0,1.0,1.0,1.0, 1.0
978,2,0.5,4,0.5,4,-0.8749461545206837,0.0,0.4842202254031403,0.0,1.0,-0.0,1.0,1.0,1.0, 1.0
979,2,0.5,4,0.5,4,-0.8152626044290652,0.0,0.5790914313124809,0.0,1.0,-0.0,1.0,1.0,1.0, 1.0
980,2,0.5,4,0.5,4,-0.7455029564991136,0.0,0.6665023194641415,0.0,1.0,-0.0,1.0,1.0,1.0, 1.0
981,2,0.5,4,0.5,4,-0.07218802336910306,0.0,0.9973910413083035,0.0,1.0,-0.0,1.0,1.0,1.0, 1.0
982,2,0.5,4,0.5,4,-0.2123739003342969,0.0,0.977188480517857,0.0,1.0,-0.0,1.0,1.0,1.0, 1.0
983,2,0.5,4,0.5,4,-0.3431284350025491,0.0,0.9392884951348556,0.0,1.0,-0.0,1.0,1.0,1.0, 1.0
984,2,0.5,4,0.5,4,-0.4611623177273232,0.0,0.8873157931133445,0.0,1.0,-0.0,1.0,1.0,1.0, 1.0
985,2,0.5,4,0.5,4,-0.5637092848896592,0.0,0.8259732696214745,0.0,1.0,-0.0,1.0,1.0,1.0, 1.0
986,2,0.5,4,0.5,4,-0.6474711271693113,0.0,0.7620899812240688,0.0,1.0,-0.0,1.0,1.0,1.0, 1.0
987,2,0.5,4,0.5,4,-0.7072496983145056,0.0,0.7069638351670056,0.0,1.0,-0.0,1.0,1.0,1.0, 1.0
988,2,0.5,4,0.5,4,-0.08737100974185541,0.0,0.9961758412332075,0.0,1.0,-0.0,1.0,1.0,1.0, 1.0
989,2,0.5,4,0.5,4,-0.25345755084685934,0.0,0.9673465097464877,0.0,1.0,-0.0,1.0,1.0,1.0, 1.0
990,2,0.5,4,0.5,4,-0.40091988104003506,0.0,0.9161131201914117,0.0,1.0,-0.0,1.0,1.0,1.0, 1.0
991,2,0.5,4,0.5,4,-0.5261433313697607,0.0,0.8503959047732591,0.0,1.0,-0.0,1.0,1.0,1.0, 1.0
992,2,0.5,4,0.5,4,-0.6285295693659516,0.0,0.7777856905553426,0.0,1.0,-0.0,1.0,1.0,1.0, 1.0
993,2,0.5,4,0.5,4,-0.7078130286413462,0.0,0.7063998276369868,0.0,1.0,-0.0,1.0,1.0,1.0, 1.0
994,2,0.5,4,0.5,4,-0.7626522146947983,0.0,0.6468087811873918,0.0,1.0,-0.0,1.0,1.0,1.0, 1.0
995,2,0.5,4,0.5,4,-0.11072346943614492,0.0,0.9938512531138767,0.0,1.0,-0.0,1.0,1.0,1.0, 1.0
996,2,0.5,4,0.5,4,-0.3143377934999197,0.0,0.9493111984895164,0.0,1.0,-0.0,1.0,1.0,1.0, 1.0
997,2,0.5,4,0.5,4,-0.48200814483990806,0.0,0.8761667354493609,0.0,1.0,-0.0,1.0,1.0,1.0, 1.0
998,2,0.5,4,0.5,4,-0.6120332988869001,0.0,0.7908319929375761,0.0,1.0,-0.0,1.0,1.0,1.0, 1.0
999,2,0.5,4,0.5,4,-0.7095899443124033,0.0,0.7046148670945857,0.0,1.0,-0.0,1.0,1.0,1.0, 1.0
1000,2,0.5,4,0.5,4,-0.7801185883141919,0.0,0.6256316713264062,0.0,1.0,-0.0,1.0,1.0,1.0, 1.0
1001,2,0.5,4,0.5,4,-0.8268701659023426,0.0,0.5623928597880954,0.0,1.0,-0.0,1.0,1.0,1.0, 1.0
1002,2,0.5,4,0.5,4,-0.1460742189482526,0.0,0.9892736338135459,0.0,1.0,-0.0,1.0,1.0,1.0, 1.0
1003,2,0.5,4,0.5,4,-0.4007513891061313,0.0,0.9161868390942461,0.0,1.0,-0.0,1.0,1.0,1.0, 1.0
1004,2,0.5,4,0.5,4,-0.5868089640716038,0.0,0.8097254100528224,0.0,1.0,-0.0,1.0,1.0,1.0, 1.0
1005,2,0.5,4,0.5,4,-0.7130305076400608,0.0,0.701133008190712,0.0,1.0,-0.0,1.0,1.0,1.0, 1.0
1006,2,0.5,4,0.5,4,-0.7973907606912232,0.0,0.6034633168339832,0.0,1.0,-0.0,1.0,1.0,1.0, 1.0
1007,2,0.5,4,0.5,4,-0.8533415593401418,0.0,0.5213522639280809,0.0,1.0,-0.0,1.0,1.0,1.0, 1.0
1008,2,0.5,4,0.5,4,-0.8884091047090673,0.0,0.45905257070409006,0.0,1.0,-0.0,1.0,1.0,1.0, 1.0
1009,2,0.5,4,0.5,4,-0.20514327942936045,0.0,0.9787319525309099,0.0,1.0,-0.0,1.0,1.0,1.0, 1.0
1010,2,0.5,4,0.5,4,-0.5268890362915248,0.0,0.8499340818179891,0.0,1.0,-0.0,1.0,1.0,1.0, 1.0
1011,2,0.5,4,0.5,4,-0.7165384403285043,0.0,0.6975476066417219,0.0,1.0,-0.0,1.0,1.0,1.0, 1.0
1012,2,0.5,4,0.5,4,-0.8217636781003842,0.0,0.5698284455473666,0.0,1.0,-0.0,1.0,1.0,1.0, 1.0
1013,2,0.5,4,0.5,4,-0.8823770504403864,0.0,0.47054302763522476,0.0,1.0,-0.0,1.0,1.0,1.0, 1.0
1014,2,0.5,4,0.5,4,-0.9187895020754052,0.0,0.3947478320092828,0.0,1.0,-0.0,1.0,1.0,1.0, 1.0
1015,2,0.5,4,0.5,4,-0.9402517155570301,0.0,0.3404801189380401,0.0,1.0,-0.0,1.0,1.0,1.0, 1.0
1016,2,0.5,4,0.5,4,-0.32799670001012743,0.0,0.9446788686016357,0.0,1.0,-0.0,1.0,1.0,1.0, 1.0
1017,2,0.5,4,0.5,4,-0.716567973539463,0.0,0.6975172680998998,0.0,1.0,-0.0,1.0,1.0,1.0, 1.0
1018,2,0.5,4,0.5,4,-0.8629548272758905,0.0,0.5052810763142016,0.0,1.0,-0.0,1.0,1.0,1.0, 1.0
1019,2,0.5,4,0.5,4,-0.9234132468538739,0.0,0.38380721141581836,0.0,1.0,-0.0,1.0,1.0,1.0, 1.0
1020,2,0.5,4,0.5,4,-0.9527935588702983,0.0,0.30361889627503674,0.0,1.0,-0.0,1.0,1.0,1.0, 1.0
1021,2,0.5,4,0.5,4,-0.9687908194861157,0.0,0.2478797048558441,0.0,1.0,-0.0,1.0,1.0,1.0, 1.0
1022,2,0.5,4,0.5,4,-0.9776965414357361,0.0,0.2100225532284567,0.0,1.0,-0.0,1.0,1.0,1.0, 1.0
1023,2,0.5,4,0.5,4,-0.711203047549249,0.0,0.702986646499534,0.0,1.0,-0.0,1.0,1.0,1.0, 1.0
1024,2,0.5,4,0.5,4,-0.9488494381499128,0.0,0.31572890859500763,0.0,1.0,-0.0,1.0,1.0,1.0, 1.0
1025,2,0.5,4,0.5,4,-0.9808233208324237,0.0,0.1948989823248356,0.0,1.0,-0.0,1.0,1.0,1.0, 1.0
1026,2,0.5,4,0.5,4,-0.9903244680053526,0.0,0.1387712076401854,0.0,1.0,-0.0,1.0,1.0,1.0, 1.0
1027,2,0.5,4,0.5,4,-0.9943387060007486,0.0,0.10625694212029971,0.0,1.0,-0.0,1.0,1.0,1.0, 1.0
1028,2,0.5,4,0.5,4,-0.9963734556557999,0.0,0.08508781854366439,0.0,1.0,-0.0,1.0,1.0,1.0, 1.0
1029,2,0.5,4,0.5,4,-0.9974597613010975,0.0,0.07123218784480413,0.0,1.0,-0.0,1.0,1.0,1.0, 1.0
1030,2,0.5,4,0.5,4,-0.07152172192431162,0.0,0.9974390423945623,0.0,1.0,-0.0,1.0,1.0,1.0, 1.0
1031,2,0.5,4,0.5,4,-0.21051668766551507,0.0,0.9775902639727647,0.0,1.0,-0.0,1.0,1.0,1.0, 1.0
1032,2,0.5,4,0.5,4,-0.34081400629869474,0.0,0.9401307425622424,0.0,1.0,-0.0,1.0,1.0,1.0, 1.0
1033,2,0.5,4,0.5,4,-0.4590902071197245,0.0,0.8883896564721858,0.0,1.0,-0.0,1.0,1.0,1.0, 1.0
1034,2,0.5,4,0.5,4,-0.5623053524275018,0.0,0.8269296769565009,0.0,1.0,-0.0,1.0,1.0,1.0, 1.0
1035,2,0.5,4,0.5,4,-0.6468649826047613,0.0,0.7626045464588721,0.0,1.0,-0.0,1.0,1.0,1.0, 1.0
1036,2,0.5,4,0.5,4,-0.7072737148898283,0.0,0.7069398080642666,0.0,1.0,-0.0,1.0,1.0,1.0, 1.0
1037,2,0.5,4,0.5,4,-0.08659528154822936,0.0,0.9962435732357738,0.0,1.0,-0.0,1.0,1.0,1.0, 1.0
1038,2,0.5,4,0.5,4,-0.2513706733551318,0.0,0.9678908949757651,0.0,1.0,-0.0,1.0,1.0,1.0, 1.0
1039,2,0.5,4,0.5,4,-0.3986458233185924,0.0,0.9171049599422313,0.0,1.0,-0.0,1.0,1.0,1.0, 1.0
1040,2,0.5,4,0.5,4,-0.5245311304042487,0.0,0.8513912691805343,0.0,1.0,-0.0,1.0,1.0,1.0, 1.0
1041,2,0.5,4,0.5,4,-0.6278687703603185,0.0,0.7783192193478339,0.0,1.0,-0.0,1.0,1.0,1.0, 1.0
1042,2,0.5,4,0.5,4,-0.7079849992219652,0.0,0.7062274710577846,0.0,1.0,-0.0,1.0,1.0,1.0, 1.0
1043,2,0.5,4,0.5,4,-0.7632963744321223,0.0,0.6460484848513903,0.0,1.0,-0.0,1.0,1.0,1.0, 1.0
1044,2,0.5,4,0.5,4,-0.10966231437883601,0.0,0.9939689013269365,0.0,1.0,-0.0,1.0,1.0,1.0, 1.0
1045,2,0.5,4,0.5,4,-0.31195940121769444,0.0,0.9500954330970639,0.0,1.0,-0.0,1.0,1.0,1.0, 1.0
1046,2,0.5,4,0.5,4,-0.480062132688356,0.0,0.8772344890385395,0.0,1.0,-0.0,1.0,1.0,1.0, 1.0
1047,2,0.5,4,0.5,4,-0.6112957782392328,0.0,0.7914022185380142,0.0,1.0,-0.0,1.0,1.0,1.0, 1.0
1048,2,0.5,4,0.5,4,-0.709946443536774,0.0,0.7042556689935028,0.0,1.0,-0.0,1.0,1.0,1.0, 1.0
1049,2,0.5,4,0.5,4,-0.7811153287741763,0.0,0.6243867736859987,0.0,1.0,-0.0,1.0,1.0,1.0, 1.0
1050,2,0.5,4,0.5,4,-0.8280193626405834,0.0,0.5606995051650054,0.0,1.0,-0.0,1.0,1.0,1.0, 1.0
1051,2,0.5,4,0.5,4,-0.14434516738113762,0.0,0.9895273986372037,0.0,1.0,-0.0,1.0,1.0,1.0, 1.0
1052,2,0.5,4,0.5,4,-0.3978086469803324,0.0,0.9174684083867287,0.0,1.0,-0.0,1.0,1.0,1.0, 1.0
1053,2,0.5,4,0.5,4,-0.5851724753064095,0.0,0.8109088568660288,0.0,1.0,-0.0,1.0,1.0,1.0, 1.0
1054,2,0.5,4,0.5,4,-0.7130656390558705,0.0,0.7010972788407062,0.0,1.0,-0.0,1.0,1.0,1.0, 1.0
1055,2,0.5,4,0.5,4,-0.7984461748106999,0.0,0.6020661972990686,0.0,1.0,-0.0,1.0,1.0,1.0, 1.0
1056,2,0.5,4,0.5,4,-0.854721822229538,0.0,0.5190863190304846,0.0,1.0,-0.0,1.0,1.0,1.0, 1.0
1057,2,0.5,4,0.5,4,-0.8896603801309683,0.0,0.456622829067077,0.0,1.0,-0.0,1.0,1.0,1.0, 1.0
1058,2,0.5,4,0.5,4,-0.20226877979199234,0.0,0.9793300468797321,0.0,1.0,-0.0,1.0,1.0,1.0, 1.0
1059,2,0.5,4,0.5,4,-0.523468088266023,0.0,0.8520452808196963,0.0,1.0,-0.0,1.0,1.0,1.0, 1.0
1060,2,0.5,4,0.5,4,-0.7153280984863777,0.0,0.6987887459854109,0.0,1.0,-0.0,1.0,1.0,1.0, 1.0
1061,2,0.5,4,0.5,4,-0.8221859991354178,0.0,0.5692189234606444,0.0,1.0,-0.0,1.0,1.0,1.0, 1.0
1062,2,0.5,4,0.5,4,-0.8834716689981092,0.0,0.46848458894364414,0.0,1.0,-0.0,1.0,1.0,1.0, 1.0
1063,2,0.5,4,0.5,4,-0.9199490091381819,0.0,0.39203803461612907,0.0,1.0,-0.0,1.0,1.0,1.0, 1.0
1064,2,0.5,4,0.5,4,-0.9411901451450057,0.0,0.33787736041635436,0.0,1.0,-0.0,1.0,1.0,1.0, 1.0
1065,2,0.5,4,0.5,4,-0.3240780288261199,0.0,0.9460303542868889,0.0,1.0,-0.0,1.0,1.0,1.0, 1.0
1066,2,0.5,4,0.5,4,-0.7142886882272415,0.0,0.6998511769445034,0.0,1.0,-0.0,1.0,1.0,1.0, 1.0
1067,2,0.5,4,0.5,4,-0.8626151154683994,0.0,0.5058608134313628,0.0,1.0,-0.0,1.0,1.0,1.0, 1.0
1068,2,0.5,4,0.5,4,-0.9238168301294861,0.0,0.3828347742427642,0.0,1.0,-0.0,1.0,1.0,1.0, 1.0
1069,2,0.5,4,0.5,4,-0.9533896395959635,0.0,0.3017419346247364,0.0,1.0,-0.0,1.0,1.0,1.0, 1.0
1070,2,0.5,4,0.5,4,-0.9693444578440975,0.0,0.24570576315368095,0.0,1.0,-0.0,1.0,1.0,1.0, 1.0
1071,2,0.5,4,0.5,4,-0.9781225171806845,0.0,0.20802966467338607,0.0,1.0,-0.0,1.0,1.0,1.0, 1.0
1072,2,0.5,4,0.5,4,-0.7099324582587535,0.0,0.7042697670003186,0.0,1.0,-0.0,1.0,1.0,1.0, 1.0
1073,2,0.5,4,0.5,4,-0.9490056077275721,0.0,0.3152591894007556,0.0,1.0,-0.0,1.0,1.0,1.0, 1.0
1074,2,0.5,4,0.5,4,-0.9809298140187093,0.0,0.19436229050209455,0.0,1.0,-0.0,1.0,1.0,1.0, 1.0
1075,2,0.5,4,0.5,4,-0.9904087382681447,0.0,0.1381684883108357,0.0,1.0,-0.0,1.0,1.0,1.0, 1.0
1076,2,0.5,4,0.5,4,-0.9944137863673128,0.0,0.10555198474033638,0.0,1.0,-0.0,1.0,1.0,1.0, 1.0
1077,2,0.5,4,0.5,4,-0.9964361217150962,0.0,0.084350787437807,0.0,1.0,-0.0,1.0,1.0,1.0, 1.0
1078,2,0.5,4,0.5,4,-0.9975091393029758,0.0,0.07053734476882578,0.0,1.0,-0.0,1.0,1.0,1.0, 1.0
1079,2,0.5,4,0.5,4,-0.6664676844040568,0.0,0.7455339198487849,0.0,1.0,-0.0,1.0,1.0,1.0, 1.0
1080,2,0.5,4,0.5,4,-0.6667635418196043,0.0,0.745269333395771,0.0,1.0,-0.0,1.0,1.0,1.0, 1.0
1081,2,0.5,4,0.5,4,-0.6671778776212106,0.0,0.7448984357701773,0.0,1.0,-0.0,1.0,1.0,1.0, 1.0
1082,2,0.5,4,0.5,4,-0.6677867965702433,0.0,0.7443526008058631,0.0,1.0,-0.0,1.0,1.0,1.0, 1.0
1083,2,0.5,4,0.5,4,-0.6688677348594497,0.0,0.7433814318800199,0.0,1.0,-0.0,1.0,1.0,1.0, 1.0
1084,2,0.5,4,0.5,4,-0.671473583713014,0.0,0.7410284922832603,0.0,1.0,-0.0,1.0,1.0,1.0, 1.0
1085,2,0.5,4,0.5,4,-0.678425765152617,0.0,0.7346689602651564,0.0,1.0,-0.0,1.0,1.0,1.0, 1.0
1086,2,0.5,4,0.5,4,-0.5789971199545072,0.0,0.8153295867833977,0.0,1.0,-0.0,1.0,1.0,1.0, 1.0
1087,2,0.5,4,0.5,4,-0.579780221052599,0.0,0.8147729102493526,0.0,1.0,-0.0,1.0,1.0,1.0, 1.0
1088,2,0.5,4,0.5,4,-0.5809247145976063,0.0,0.8139572937013894,0.0,1.0,-0.0,1.0,1.0,1.0, 1.0
1089,2,0.5,4,0.5,4,-0.5826415224618359,0.0,0.8127292638408895,0.0,1.0,-0.0,1.0,1.0,1.0, 1.0
1090,2,0.5,4,0.5,4,-0.5855952910594603,0.0,0.8106035745597142,0.0,1.0,-0.0,1.0,1.0,1.0, 1.0
1091,2,0.5,4,0.5,4,-0.5924200053304064,0.0,0.8056292803047325,0.0,1.0,-0.0,1.0,1.0,1.0, 1.0
1092,2,0.5,4,0.5,4,-0.6095826875393922,0.0,0.792722490567949,0.0,1.0,-0.0,1.0,1.0,1.0, 1.0
1093,2,0.5,4,0.5,4,-0.4840831184527996,0.0,0.8750220193966621,0.0,1.0,-0.0,1.0,1.0,1.0, 1.0
1094,2,0.5,4,0.5,4,-0.4850034388947694,0.0,0.8745122436308412,0.0,1.0,-0.0,1.0,1.0,1.0, 1.0
1095,2,0.5,4,0.5,4,-0.48646447603892534,0.0,0.8737003568456257,0.0,1.0,-0.0,1.0,1.0,1.0, 1.0
1096,2,0.5,4,0.5,4,-0.48877165952363,0.0,0.872411751896154,0.0,1.0,-0.0,1.0,1.0,1.0, 1.0
1097,2,0.5,4,0.5,4,-0.49270865832531296,0.0,0.8701943334745808,0.0,1.0,-0.0,1.0,1.0,1.0, 1.0
1098,2,0.5,4,0.5,4,-0.5013811765915259,0.0,0.8652265112441349,0.0,1.0,-0.0,1.0,1.0,1.0, 1.0
1099,2,0.5,4,0.5,4,-0.522058607555541,0.0,0.8529096143655374,0.0,1.0,-0.0,1.0,1.0,1.0, 1.0
1100,2,0.5,4,0.5,4,-0.3829091021664966,0.0,0.9237860247254488,0.0,1.0,-0.0,1.0,1.0,1.0, 1.0
1101,2,0.5,4,0.5,4,-0.3835948587893336,0.0,0.9235014804050892,0.0,1.0,-0.0,1.0,1.0,1.0, 1.0
1102,2,0.5,4,0.5,4,-0.3849092878198852,0.0,0.922954408489384,0.0,1.0,-0.0,1.0,1.0,1.0, 1.0
1103,2,0.5,4,0.5,4,-0.3871839315994334,0.0,0.9220024962608317,0.0,1.0,-0.0,1.0,1.0,1.0, 1.0
1104,2,0.5,4,0.5,4,-0.39119571315675494,0.0,0.9203075105679502,0.0,1.0,-0.0,1.0,1.0,1.0, 1.0
1105,2,0.5,4,0.5,4,-0.3998957403974421,0.0,0.916560634552882,0.0,1.0,-0.0,1.0,1.0,1.0, 1.0
1106,2,0.5,4,0.5,4,-0.4203180182601616,0.0,0.9073768586016785,0.0,1.0,-0.0,1.0,1.0,1.0, 1.0
1107,2,0.5,4,0.5,4,-0.276858649382871,0.0,0.9609106557125343,0.0,1.0,-0.0,1.0,1.0,1.0, 1.0
1108,2,0.5,4,0.5,4,-0.2771443154336517,0.0,0.9608283033002372,0.0,1.0,-0.0,1.0,1.0,1.0, 1.0
1109,2,0.5,4,0.5,4,-0.2780455063911814,0.0,0.9605679030530176,0.0,1.0,-0.0,1.0,1.0,1.0, 1.0
1110,2,0.5,4,0.5,4,-0.27985221187834636,0.0,0.9600430925259538,0.0,1.0,-0.0,1.0,1.0,1.0, 1.0
1111,2,0.5,4,0.5,4,-0.28322105155956606,0.0,0.9590546574379865,0.0,1.0,-0.0,1.0,1.0,1.0, 1.0
1112,2,0.5,4,0.5,4,-0.2906119898501764,0.0,0.9568409854073564,0.0,1.0,-0.0,1.0,1.0,1.0, 1.0
1113,2,0.5,4,0.5,4,-0.3079760688829622,0.0,0.9513941039313818,0.0,1.0,-0.0,1.0,1.0,1.0, 1.0
1114,2,0.5,4,0.5,4,-0.16739020444092123,0.0,0.985890723892474,0.0,1.0,-0.0,1.0,1.0,1.0, 1.0
1115,2,0.5,4,0.5,4,-0.16736443266852366,0.0,0.9858950992258473,0.0,1.0,-0.0,1.0,1.0,1.0, 1.0
1116,2,0.5,4,0.5,4,-0.16783883130505411,0.0,0.9858144484162086,0.0,1.0,-0.0,1.0,1.0,1.0, 1.0
1117,2,0.5,4,0.5,4,-0.16899561412283967,0.0,0.9856168030260261,0.0,1.0,-0.0,1.0,1.0,1.0, 1.0
1118,2,0.5,4,0.5,4,-0.17126580337404856,0.0,0.9852248599150559,0.0,1.0,-0.0,1.0,1.0,1.0, 1.0
1119,2,0.5,4,0.5,4,-0.17629352278211743,0.0,0.9843376421863947,0.0,1.0,-0.0,1.0,1.0,1.0, 1.0
1120,2,0.5,4,0.5,4,-0.18812444408082252,0.0,0.982145199824996,0.0,1.0,-0.0,1.0,1.0,1.0, 1.0
1121,2,0.5,4,0.5,4,-0.05595122445965122,0.0,0.9984335032847533,0.0,1.0,-0.0,1.0,1.0,1.0, 1.0
1122,2,0.5,4,0.5,4,-0.05584930829547858,0.0,0.9984392093477282,0.0,1.0,-0.0,1.0,1.0,1.0, 1.0
1123,2,0.5,4,0.5,4,-0.056003830798066714,0.0,0.9984305538874206,0.0,1.0,-0.0,1.0,1.0,1.0, 1.0
1124,2,0.5,4,0.5,4,-0.056438810557208174,0.0,0.9984060600090966,0.0,1.0,-0.0,1.0,1.0,1.0, 1.0
1125,2,0.5,4,0.5,4,-0.05729021796938181,0.0,0.9983575666688869,0.0,1.0,-0.0,1.0,1.0,1.0, 1.0
1126,2,0.5,4,0.5,4,-0.05913180021260253,0.0,0.9982501841740962,0.0,1.0,-0.0,1.0,1.0,1.0, 1.0
1127,2,0.5,4,0.5,4,-0.06340455216254648,0.0,0.997987907123662,0.0,1.0,-0.0,1.0,1.0,1.0, 1.0
1128,2,0.5,4,0.5,4,-0.6665023194641418,0.0,0.7455029564991136,0.0,1.0,-0.0,1.0,1.0,1.0, 1.0
1129,2,0.5,4,0.5,4,-0.6668539970892332,0.0,0.7451883966931537,0.0,1.0,-0.0,1.0,1.0,1.0, 1.0
1130,2,0.5,4,0.5,4,-0.6672965684587088,0.0,0.7447921117487963,0.0,1.0,-0.0,1.0,1.0,1.0, 1.0
1131,2,0.5,4,0.5,4,-0.6678799097428287,0.0,0.7442690549538594,0.0,1.0,-0.0,1.0,1.0,1.0, 1.0
1132,2,0.5,4,0.5,4,-0.6688528952328263,0.0,0.7433947837714937,0.0,1.0,-0.0,1.0,1.0,1.0, 1.0
1133,2,0.5,4,0.5,4,-0.6713062242590484,0.0,0.7411801085236033,0.0,1.0,-0.0,1.0,1.0,1.0, 1.0
1134,2,0.5,4,0.5,4,-0.6781736148074736,0.0,0.7349017268852784,0.0,1.0,-0.0,1.0,1.0,1.0, 1.0
1135,2,0.5,4,0.5,4,-0.5790914313124809,0.0,0.8152626044290651,0.0,1.0,-0.0,1.0,1.0,1.0, 1.0
1136,2,0.5,4,0.5,4,-0.580043202247827,0.0,0.8145857128173108,0.0,1.0,-0.0,1.0,1.0,1.0, 1.0
1137,2,0.5,4,0.5,4,-0.5812735655210891,0.0,0.8137082044728321,0.0,1.0,-0.0,1.0,1.0,1.0, 1.0
1138,2,0.5,4,0.5,4,-0.582904814519015,0.0,0.8125404465074662,0.0,1.0,-0.0,1.0,1.0,1.0, 1.0
1139,2,0.5,4,0.5,4,-0.5855355368029249,0.0,0.8106467388085333,0.0,1.0,-0.0,1.0,1.0,1.0, 1.0
1140,2,0.5,4,0.5,4,-0.5918846014339043,0.0,0.8060227159239547,0.0,1.0,-0.0,1.0,1.0,1.0, 1.0
1141,2,0.5,4,0.5,4,-0.6087358397799194,0.0,0.7933729749414435,0.0,1.0,-0.0,1.0,1.0,1.0, 1.0
1142,2,0.5,4,0.5,4,-0.4842202254031402,0.0,0.8749461545206837,0.0,1.0,-0.0,1.0,1.0,1.0, 1.0
1143,2,0.5,4,0.5,4,-0.4853922423987533,0.0,0.8742965006330004,0.0,1.0,-0.0,1.0,1.0,1.0, 1.0
1144,2,0.5,4,0.5,4,-0.4869790405886792,0.0,0.8734136557366902,0.0,1.0,-0.0,1.0,1.0,1.0, 1.0
1145,2,0.5,4,0.5,4,-0.4891472305941344,0.0,0.8722012306813657,0.0,1.0,-0.0,1.0,1.0,1.0, 1.0
1146,2,0.5,4,0.5,4,-0.4925893040952771,0.0,0.8702619016657747,0.0,1.0,-0.0,1.0,1.0,1.0, 1.0
1147,2,0.5,4,0.5,4,-0.5005125304411236,0.0,0.8657292919102503,0.0,1.0,-0.0,1.0,1.0,1.0, 1.0
1148,2,0.5,4,0.5,4,-0.5206081017435569,0.0,0.8537957626967766,0.0,1.0,-0.0,1.0,1.0,1.0, 1.0
1149,2,0.5,4,0.5,4,-0.38307107911336497,0.0,0.923718868675379,0.0,1.0,-0.0,1.0,1.0,1.0, 1.0
1150,2,0.5,4,0.5,4,-0.38404292545712576,0.0,0.9233152394530985,0.0,1.0,-0.0,1.0,1.0,1.0, 1.0
1151,2,0.5,4,0.5,4,-0.38549704023654296,0.0,0.9227090722263791,0.0,1.0,-0.0,1.0,1.0,1.0, 1.0
1152,2,0.5,4,0.5,4,-0.3876019857199928,0.0,0.9218268279161322,0.0,1.0,-0.0,1.0,1.0,1.0, 1.0
1153,2,0.5,4,0.5,4,-0.39102936122695786,0.0,0.9203782041413395,0.0,1.0,-0.0,1.0,1.0,1.0, 1.0
1154,2,0.5,4,0.5,4,-0.39884705936552306,0.0,0.917017460703707,0.0,1.0,-0.0,1.0,1.0,1.0, 1.0
1155,2,0.5,4,0.5,4,-0.41848531787421245,0.0,0.9082235620835432,0.0,1.0,-0.0,1.0,1.0,1.0, 1.0
1156,2,0.5,4,0.5,4,-0.2770170449148572,0.0,0.9608650044759878,0.0,1.0,-0.0,1.0,1.0,1.0, 1.0
1157,2,0.5,4,0.5,4,-0.27757881202754814,0.0,0.9607028693167181,0.0,1.0,-0.0,1.0,1.0,1.0, 1.0
1158,2,0.5,4,0.5,4,-0.27860774726882465,0.0,0.9604049787260532,0.0,1.0,-0.0,1.0,1.0,1.0, 1.0
1159,2,0.5,4,0.5,4,-0.28023889212503367,0.0,0.9599302908756102,0.0,1.0,-0.0,1.0,1.0,1.0, 1.0
1160,2,0.5,4,0.5,4,-0.283038054106736,0.0,0.9591086799354243,0.0,1.0,-0.0,1.0,1.0,1.0, 1.0
1161,2,0.5,4,0.5,4,-0.28957807274458397,0.0,0.9571543970465436,0.0,1.0,-0.0,1.0,1.0,1.0, 1.0
1162,2,0.5,4,0.5,4,-0.3061186033992177,0.0,0.9519933826728589,0.0,1.0,-0.0,1.0,1.0,1.0, 1.0
1163,2,0.5,4,0.5,4,-0.16751522855722942,0.0,0.9858694884219813,0.0,1.0,-0.0,1.0,1.0,1.0, 1.0
1164,2,0.5,4,0.5,4,-0.16770372204605316,0.0,0.9858374417782578,0.0,1.0,-0.0,1.0,1.0,1.0, 1.0
1165,2,0.5,4,0.5,4,-0.1682700368393302,0.0,0.9857409369109567,0.0,1.0,-0.0,1.0,1.0,1.0, 1.0
1166,2,0.5,4,0.5,4,-0.16928442902066812,0.0,0.9855672387468782,0.0,1.0,-0.0,1.0,1.0,1.0, 1.0
1167,2,0.5,4,0.5,4,-0.1711187190658449,0.0,0.9852504168916979,0.0,1.0,-0.0,1.0,1.0,1.0, 1.0
1168,2,0.5,4,0.5,4,-0.1755078139129835,0.0,0.984478037975193,0.0,1.0,-0.0,1.0,1.0,1.0, 1.0
1169,2,0.5,4,0.5,4,-0.1867025006389746,0.0,0.9824164983626616,0.0,1.0,-0.0,1.0,1.0,1.0, 1.0
1170,2,0.5,4,0.5,4,-0.05601048647021357,0.0,0.9984301805361104,0.0,1.0,-0.0,1.0,1.0,1.0, 1.0
1171,2,0.5,4,0.5,4,-0.05600250790009908,0.0,0.9984306280903543,0.0,1.0,-0.0,1.0,1.0,1.0, 1.0
1172,2,0.5,4,0.5,4,-0.056192812420503405,0.0,0.9984199356144058,0.0,1.0,-0.0,1.0,1.0,1.0, 1.0
1173,2,0.5,4,0.5,4,-0.056565584280602856,0.0,0.998398885553762,0.0,1.0,-0.0,1.0,1.0,1.0, 1.0
1174,2,0.5,4,0.5,4,-0.05723916998815784,0.0,0.998360494720753,0.0,1.0,-0.0,1.0,1.0,1.0, 1.0
1175,2,0.5,4,0.5,4,-0.058834687678712846,0.0,0.9982677393994801,0.0,1.0,-0.0,1.0,1.0,1.0, 1.0
1176,2,0.5,4,0.5,4,-0.06287749894584463,0.0,0.9980212523420107,0.0,1.0,-0.0,1.0,1.0,1.0, 1.0
