e_no,c,k1,k2,k3,k4,ax,ay,az,bx,by,bz,pvol,m_g,m_c
1,0.0228,0.132,3.45,0.132,3.45,-0.718917179901007,0.0,0.695095740487009,0.0,1.0,-0.0,0.2,1.0,1.0, 1.0
2,0.0228,0.132,3.45,0.132,3.45,-0.7190045753454594,0.0,0.6950053385638817,0.0,1.0,-0.0,0.2,1.0,1.0, 1.0
3,0.0228,0.132,3.45,0.132,3.45,-0.9481390670608272,0.0,0.3178557998731883,0.0,1.0,-0.0,0.2,1.0,1.0, 1.0
4,0.0228,0.132,3.45,0.132,3.45,-0.9481831413266197,0.0,0.31772429951765335,0.0,1.0,-0.0,0.2,1.0,1.0, 1.0
5,0.0228,0.132,3.45,0.132,3.45,-0.9759121689733907,0.0,0.21816378812637965,0.0,1.0,-0.0,0.2,1.0,1.0, 1.0
6,0.0228,0.132,3.45,0.132,3.45,-0.9758942526647242,0.0,0.21824391770667861,0.0,1.0,-0.0,0.2,1.0,1.0, 1.0
7,0.0228,0.132,3.45,0.132,3.45,-0.9833181984841087,0.0,0.18189370668048724,0.0,1.0,-0.0,0.2,1.0,1.0, 1.0
8,0.0228,0.132,3.45,0.132,3.45,-0.9832684225359496,0.0,0.18216259013218178,0.0,1.0,-0.0,0.2,1.0,1.0, 1.0
9,0.0228,0.132,3.45,0.132,3.45,-0.9859084312919607,0.0,0.1672858783861478,0.0,1.0,-0.0,0.2,1.0,1.0, 1.0
10,0.0228,0.132,3.45,0.132,3.45,-0.9858482016205189,0.0,0.16764045860587629,0.0,1.0,-0.0,0.2,1.0,1.0, 1.0
11,0.0228,0.132,3.45,0.132,3.45,-0.9861276479844849,0.0,0.16598874022230456,0.0,1.0,-0.0,0.2,1.0,1.0, 1.0
12,0.0228,0.132,3.45,0.132,3.45,-0.9860763902268604,0.0,0.1662929723023932,0.0,1.0,-0.0,0.2,1.0,1.0, 1.0
13,0.0228,0.132,3.45,0.132,3.45,-0.9852567634951013,0.0,0.17108217320094438,0.0,1.0,-0.0,0.2,1.0,1.0, 1.0
14,0.0228,0.132,3.45,0.132,3.45,-0.985212666822251,0.0,0.171335930653755,0.0,1.0,-0.0,0.2,1.0,1.0, 1.0
15,0.0228,0.132,3.45,0.132,3.45,-0.984735919184788,0.0,0.17405507595956743,0.0,1.0,-0.0,0.2,1.0,1.0, 1.0
16,0.0228,0.132,3.45,0.132,3.45,-0.9846825228675252,0.0,0.17435690166794512,0.0,1.0,-0.0,0.2,1.0,1.0, 1.0
17,0.0228,0.132,3.45,0.132,3.45,-0.9857228285633345,0.0,0.16837608277038327,0.0,1.0,-0.0,0.2,1.0,1.0, 1.0
18,0.0228,0.132,3.45,0.132,3.45,-0.985669000977326,0.0,0.16869090228094763,0.0,1.0,-0.0,0.2,1.0,1.0, 1.0
19,0.0228,0.132,3.45,0.132,3.45,-0.9877503343639708,0.0,0.15604254856885683,0.0,1.0,-0.0,0.2,1.0,1.0, 1.0
20,0.0228,0.132,3.45,0.132,3.45,-0.9877235546014542,0.0,0.15621197036548906,0.0,1.0,-0.0,0.2,1.0,1.0, 1.0
21,0.0228,0.132,3.45,0.132,3.45,-0.9900001574416346,0.0,0.14106625487882912,0.0,1.0,-0.0,0.2,1.0,1.0, 1.0
22,0.0228,0.132,3.45,0.132,3.45,-0.9899988039436743,0.0,0.14107575337418646,0.0,1.0,-0.0,0.2,1.0,1.0, 1.0
23,0.0228,0.132,3.45,0.132,3.45,-0.9924202109536595,0.0,0.12289070302791116,0.0,1.0,-0.0,0.2,1.0,1.0, 1.0
24,0.0228,0.132,3.45,0.132,3.45,-0.9924259417180116,0.0,0.122844414627275,0.0,1.0,-0.0,0.2,1.0,1.0, 1.0
25,0.0228,0.132,3.45,0.132,3.45,-0.9355498326709311,0.0,0.35319472050045275,0.0,1.0,-0.0,0.2,1.0,1.0, 1.0
26,0.0228,0.132,3.45,0.132,3.45,-0.9355705089058668,0.0,0.3531399479889204,0.0,1.0,-0.0,0.2,1.0,1.0, 1.0
27,0.0228,0.132,3.45,0.132,3.45,-0.8365292133418004,0.0,0.547922325905551,0.0,1.0,-0.0,0.2,1.0,1.0, 1.0
28,0.0228,0.132,3.45,0.132,3.45,-0.8365495386566134,0.0,0.5478912933907667,0.0,1.0,-0.0,0.2,1.0,1.0, 1.0
29,0.0228,0.132,3.45,0.132,3.45,-0.7033575947278796,0.0,0.7108361934641565,0.0,1.0,-0.0,0.2,1.0,1.0, 1.0
30,0.0228,0.132,3.45,0.132,3.45,-0.7033719641884759,0.0,0.7108219748950121,0.0,1.0,-0.0,0.2,1.0,1.0, 1.0
31,0.0228,0.132,3.45,0.132,3.45,-0.5338861682943524,0.0,0.8455563608086538,0.0,1.0,-0.0,0.2,1.0,1.0, 1.0
32,0.0228,0.132,3.45,0.132,3.45,-0.5339017294406956,0.0,0.8455465352659394,0.0,1.0,-0.0,0.2,1.0,1.0, 1.0
33,0.0228,0.132,3.45,0.132,3.45,-0.3341810128193717,0.0,0.9425089127806797,0.0,1.0,-0.0,0.2,1.0,1.0, 1.0
34,0.0228,0.132,3.45,0.132,3.45,-0.3341711229195448,0.0,0.94251241933817,0.0,1.0,-0.0,0.2,1.0,1.0, 1.0
35,0.0228,0.132,3.45,0.132,3.45,-0.1141246230821381,0.0,0.9934664415099081,0.0,1.0,-0.0,0.2,1.0,1.0, 1.0
36,0.0228,0.132,3.45,0.132,3.45,-0.11411575745207288,0.0,0.9934674599105596,0.0,1.0,-0.0,0.2,1.0,1.0, 1.0
37,0.0228,0.132,3.45,0.132,3.45,-0.11783803021472392,0.0,0.9930328285787503,0.0,1.0,-0.0,0.2,1.0,1.0, 1.0
38,0.0228,0.132,3.45,0.132,3.45,-0.11783658130260544,0.0,0.993033000512528,0.0,1.0,-0.0,0.2,1.0,1.0, 1.0
39,0.0228,0.132,3.45,0.132,3.45,-0.12621483279140705,0.0,0.9920029314389335,0.0,1.0,-0.0,0.2,1.0,1.0, 1.0
40,0.0228,0.132,3.45,0.132,3.45,-0.1262905407341051,0.0,0.9919932960061209,0.0,1.0,-0.0,0.2,1.0,1.0, 1.0
41,0.0228,0.132,3.45,0.132,3.45,-0.13624307135818842,0.0,0.9906754390348473,0.0,1.0,-0.0,0.2,1.0,1.0, 1.0
42,0.0228,0.132,3.45,0.132,3.45,-0.1364625157995798,0.0,0.9906452350774467,0.0,1.0,-0.0,0.2,1.0,1.0, 1.0
43,0.0228,0.132,3.45,0.132,3.45,-0.14063583861080167,0.0,0.9900613924894943,0.0,1.0,-0.0,0.2,1.0,1.0, 1.0
44,0.0228,0.132,3.45,0.132,3.45,-0.14091384370831775,0.0,0.990021862713823,0.0,1.0,-0.0,0.2,1.0,1.0, 1.0
45,0.0228,0.132,3.45,0.132,3.45,-0.141216967085133,0.0,0.989978670581986,0.0,1.0,-0.0,0.2,1.0,1.0, 1.0
46,0.0228,0.132,3.45,0.132,3.45,-0.14147407358416617,0.0,0.9899419611792915,0.0,1.0,-0.0,0.2,1.0,1.0, 1.0
47,0.0228,0.132,3.45,0.132,3.45,-0.141357575534344,0.0,0.9899586030936102,0.0,1.0,-0.0,0.2,1.0,1.0, 1.0
48,0.0228,0.132,3.45,0.132,3.45,-0.14154869611575108,0.0,0.9899312938926271,0.0,1.0,-0.0,0.2,1.0,1.0, 1.0
49,0.0228,0.132,3.45,0.132,3.45,-0.14362652398800765,0.0,0.9896319627048846,0.0,1.0,-0.0,0.2,1.0,1.0, 1.0
50,0.0228,0.132,3.45,0.132,3.45,-0.14374440321213303,0.0,0.9896148475771712,0.0,1.0,-0.0,0.2,1.0,1.0, 1.0
51,0.0228,0.132,3.45,0.132,3.45,-0.1439059602011062,0.0,0.9895913674939761,0.0,1.0,-0.0,0.2,1.0,1.0, 1.0
52,0.0228,0.132,3.45,0.132,3.45,-0.14402288488528223,0.0,0.9895743573018253,0.0,1.0,-0.0,0.2,1.0,1.0, 1.0
53,0.0228,0.132,3.45,0.132,3.45,-0.142995854998221,0.0,0.9897232873148575,0.0,1.0,-0.0,0.2,1.0,1.0, 1.0
54,0.0228,0.132,3.45,0.132,3.45,-0.1430672574354315,0.0,0.9897129684155421,0.0,1.0,-0.0,0.2,1.0,1.0, 1.0
55,0.0228,0.132,3.45,0.132,3.45,-0.17936310992391633,0.0,0.9837829408962228,0.0,1.0,-0.0,0.2,1.0,1.0, 1.0
56,0.0228,0.132,3.45,0.132,3.45,-0.17919431672027517,0.0,0.9838137002782354,0.0,1.0,-0.0,0.2,1.0,1.0, 1.0
57,0.0228,0.132,3.45,0.132,3.45,-0.3097847894942363,0.0,0.9508067018053731,0.0,1.0,-0.0,0.2,1.0,1.0, 1.0
58,0.0228,0.132,3.45,0.132,3.45,-0.30971256875960435,0.0,0.9508302291956894,0.0,1.0,-0.0,0.2,1.0,1.0, 1.0
59,0.0228,0.132,3.45,0.132,3.45,-0.9152058394386101,0.0,0.40298668893335554,0.0,1.0,-0.0,0.2,1.0,1.0, 1.0
60,0.0228,0.132,3.45,0.132,3.45,-0.9152214824880656,0.0,0.40295116080282944,0.0,1.0,-0.0,0.2,1.0,1.0, 1.0
61,0.0228,0.132,3.45,0.132,3.45,-0.8091434891914946,0.0,0.5876111077056098,0.0,1.0,-0.0,0.2,1.0,1.0, 1.0
62,0.0228,0.132,3.45,0.132,3.45,-0.809158091240178,0.0,0.5875910000847117,0.0,1.0,-0.0,0.2,1.0,1.0, 1.0
63,0.0228,0.132,3.45,0.132,3.45,-0.6978126897043999,0.0,0.7162802873788381,0.0,1.0,-0.0,0.2,1.0,1.0, 1.0
64,0.0228,0.132,3.45,0.132,3.45,-0.6978372505225896,0.0,0.7162563589826428,0.0,1.0,-0.0,0.2,1.0,1.0, 1.0
65,0.0228,0.132,3.45,0.132,3.45,-0.5422187058840697,0.0,0.8402373920442987,0.0,1.0,-0.0,0.2,1.0,1.0, 1.0
66,0.0228,0.132,3.45,0.132,3.45,-0.5422321456692707,0.0,0.840228718982456,0.0,1.0,-0.0,0.2,1.0,1.0, 1.0
67,0.0228,0.132,3.45,0.132,3.45,-0.34258115842803477,0.0,0.9394882382925854,0.0,1.0,-0.0,0.2,1.0,1.0, 1.0
68,0.0228,0.132,3.45,0.132,3.45,-0.342602918040347,0.0,0.9394803034392148,0.0,1.0,-0.0,0.2,1.0,1.0, 1.0
69,0.0228,0.132,3.45,0.132,3.45,-0.3725149402308569,0.0,0.9280261953764026,0.0,1.0,-0.0,0.2,1.0,1.0, 1.0
70,0.0228,0.132,3.45,0.132,3.45,-0.37253641362306555,0.0,0.9280175755473945,0.0,1.0,-0.0,0.2,1.0,1.0, 1.0
71,0.0228,0.132,3.45,0.132,3.45,-0.4047050890119342,0.0,0.9144472597847524,0.0,1.0,-0.0,0.2,1.0,1.0, 1.0
72,0.0228,0.132,3.45,0.132,3.45,-0.4047597798376309,0.0,0.9144230534199106,0.0,1.0,-0.0,0.2,1.0,1.0, 1.0
73,0.0228,0.132,3.45,0.132,3.45,-0.4168843634664082,0.0,0.9089595301756881,0.0,1.0,-0.0,0.2,1.0,1.0, 1.0
74,0.0228,0.132,3.45,0.132,3.45,-0.4169367907587454,0.0,0.9089354831404692,0.0,1.0,-0.0,0.2,1.0,1.0, 1.0
75,0.0228,0.132,3.45,0.132,3.45,-0.4235284921551106,0.0,0.905882782887951,0.0,1.0,-0.0,0.2,1.0,1.0, 1.0
76,0.0228,0.132,3.45,0.132,3.45,-0.42355546478103234,0.0,0.9058701718536292,0.0,1.0,-0.0,0.2,1.0,1.0, 1.0
77,0.0228,0.132,3.45,0.132,3.45,-0.4257881435915809,0.0,0.90482288696564,0.0,1.0,-0.0,0.2,1.0,1.0, 1.0
78,0.0228,0.132,3.45,0.132,3.45,-0.4257609675368657,0.0,0.904835674872555,0.0,1.0,-0.0,0.2,1.0,1.0, 1.0
79,0.0228,0.132,3.45,0.132,3.45,-0.42821483926008463,0.0,0.9036769618826519,0.0,1.0,-0.0,0.2,1.0,1.0, 1.0
80,0.0228,0.132,3.45,0.132,3.45,-0.42813666032770986,0.0,0.9037140034786642,0.0,1.0,-0.0,0.2,1.0,1.0, 1.0
81,0.0228,0.132,3.45,0.132,3.45,-0.4283283668742082,0.0,0.9036231571462041,0.0,1.0,-0.0,0.2,1.0,1.0, 1.0
82,0.0228,0.132,3.45,0.132,3.45,-0.4282918960599931,0.0,0.9036404438543773,0.0,1.0,-0.0,0.2,1.0,1.0, 1.0
83,0.0228,0.132,3.45,0.132,3.45,-0.4150334507310405,0.0,0.9098061523062397,0.0,1.0,-0.0,0.2,1.0,1.0, 1.0
84,0.0228,0.132,3.45,0.132,3.45,-0.41518233721123204,0.0,0.9097382188672843,0.0,1.0,-0.0,0.2,1.0,1.0, 1.0
85,0.0228,0.132,3.45,0.132,3.45,-0.4799866966837245,0.0,0.8772757667955079,0.0,1.0,-0.0,0.2,1.0,1.0, 1.0
86,0.0228,0.132,3.45,0.132,3.45,-0.47980173498548445,0.0,0.8773769401488274,0.0,1.0,-0.0,0.2,1.0,1.0, 1.0
87,0.0228,0.132,3.45,0.132,3.45,-0.6932788846126304,0.0,0.7206694028125983,0.0,1.0,-0.0,0.2,1.0,1.0, 1.0
88,0.0228,0.132,3.45,0.132,3.45,-0.6933373336624459,0.0,0.720613170674704,0.0,1.0,-0.0,0.2,1.0,1.0, 1.0
89,0.0228,0.132,3.45,0.132,3.45,-0.8883017645223998,0.0,0.4592602477314915,0.0,1.0,-0.0,0.2,1.0,1.0, 1.0
90,0.0228,0.132,3.45,0.132,3.45,-0.8882905550003225,0.0,0.4592819285550207,0.0,1.0,-0.0,0.2,1.0,1.0, 1.0
91,0.0228,0.132,3.45,0.132,3.45,-0.8718724589742816,0.0,0.4897330040768538,0.0,1.0,-0.0,0.2,1.0,1.0, 1.0
92,0.0228,0.132,3.45,0.132,3.45,-0.8718535486591765,0.0,0.48976666861925294,0.0,1.0,-0.0,0.2,1.0,1.0, 1.0
93,0.0228,0.132,3.45,0.132,3.45,-0.8713804715600412,0.0,0.4906078615185453,0.0,1.0,-0.0,0.2,1.0,1.0, 1.0
94,0.0228,0.132,3.45,0.132,3.45,-0.8713857003129346,0.0,0.49059857448848787,0.0,1.0,-0.0,0.2,1.0,1.0, 1.0
95,0.0228,0.132,3.45,0.132,3.45,-0.8752170019288511,0.0,0.48373050300210907,0.0,1.0,-0.0,0.2,1.0,1.0, 1.0
96,0.0228,0.132,3.45,0.132,3.45,-0.8752240463646804,0.0,0.4837177572355966,0.0,1.0,-0.0,0.2,1.0,1.0, 1.0
97,0.0228,0.132,3.45,0.132,3.45,-0.8801013117747716,0.0,0.47478593177591766,0.0,1.0,-0.0,0.2,1.0,1.0, 1.0
98,0.0228,0.132,3.45,0.132,3.45,-0.8800709083069344,0.0,0.47484228576634513,0.0,1.0,-0.0,0.2,1.0,1.0, 1.0
99,0.0228,0.132,3.45,0.132,3.45,-0.8792414408681632,0.0,0.47637641488645927,0.0,1.0,-0.0,0.2,1.0,1.0, 1.0
100,0.0228,0.132,3.45,0.132,3.45,-0.8791647124420544,0.0,0.47651800427337443,0.0,1.0,-0.0,0.2,1.0,1.0, 1.0
101,0.0228,0.132,3.45,0.132,3.45,-0.8671864628397999,0.0,0.49798357268829285,0.0,1.0,-0.0,0.2,1.0,1.0, 1.0
102,0.0228,0.132,3.45,0.132,3.45,-0.8671384029541906,0.0,0.49806725461734147,0.0,1.0,-0.0,0.2,1.0,1.0, 1.0
103,0.0228,0.132,3.45,0.132,3.45,-0.6765086373530961,0.0,0.7364346974353241,0.0,1.0,-0.0,0.2,1.0,1.0, 1.0
104,0.0228,0.132,3.45,0.132,3.45,-0.676338336460319,0.0,0.7365911040964914,0.0,1.0,-0.0,0.2,1.0,1.0, 1.0
105,0.0228,0.132,3.45,0.132,3.45,-0.6849345888342977,0.0,0.7286045628586135,0.0,1.0,-0.0,0.2,1.0,1.0, 1.0
106,0.0228,0.132,3.45,0.132,3.45,-0.6848300314535775,0.0,0.7287028393105739,0.0,1.0,-0.0,0.2,1.0,1.0, 1.0
107,0.0228,0.132,3.45,0.132,3.45,-0.6852219536614024,0.0,0.7283343148722646,0.0,1.0,-0.0,0.2,1.0,1.0, 1.0
108,0.0228,0.132,3.45,0.132,3.45,-0.685184184836204,0.0,0.7283698461978959,0.0,1.0,-0.0,0.2,1.0,1.0, 1.0
109,0.0228,0.132,3.45,0.132,3.45,-0.6798794428625029,0.0,0.733323900587573,0.0,1.0,-0.0,0.2,1.0,1.0, 1.0
110,0.0228,0.132,3.45,0.132,3.45,-0.679898020584215,0.0,0.7333066763678526,0.0,1.0,-0.0,0.2,1.0,1.0, 1.0
111,0.0228,0.132,3.45,0.132,3.45,-0.671400421623264,0.0,0.7410947806077866,0.0,1.0,-0.0,0.2,1.0,1.0, 1.0
112,0.0228,0.132,3.45,0.132,3.45,-0.6714225713631189,0.0,0.7410747132807444,0.0,1.0,-0.0,0.2,1.0,1.0, 1.0
113,0.0228,0.132,3.45,0.132,3.45,-0.6615504622935385,0.0,0.7499006506459408,0.0,1.0,-0.0,0.2,1.0,1.0, 1.0
114,0.0228,0.132,3.45,0.132,3.45,-0.6615555966587886,0.0,0.7498961211590803,0.0,1.0,-0.0,0.2,1.0,1.0, 1.0
115,0.0228,0.132,3.45,0.132,3.45,-0.7508634774097845,0.0,0.6604574462386551,0.0,1.0,-0.0,0.2,1.0,1.0, 1.0
116,0.0228,0.132,3.45,0.132,3.45,-0.7508134415353229,0.0,0.6605143268770817,0.0,1.0,-0.0,0.2,1.0,1.0, 1.0
117,0.0228,0.132,3.45,0.132,3.45,-0.6031512258333583,0.0,0.797626854347142,0.0,1.0,-0.0,0.2,1.0,1.0, 1.0
118,0.0228,0.132,3.45,0.132,3.45,-0.6030619427072835,0.0,0.7976943608037587,0.0,1.0,-0.0,0.2,1.0,1.0, 1.0
119,0.0228,0.132,3.45,0.132,3.45,-0.8270213596386273,0.0,0.562170499672009,0.0,1.0,-0.0,0.2,1.0,1.0, 1.0
120,0.0228,0.132,3.45,0.132,3.45,-0.8271276163885883,0.0,0.5620141512518456,0.0,1.0,-0.0,0.2,1.0,1.0, 1.0
121,0.0228,0.132,3.45,0.132,3.45,-0.6350344760298627,0.0,0.7724837954633598,0.0,1.0,-0.0,0.2,1.0,1.0, 1.0
122,0.0228,0.132,3.45,0.132,3.45,-0.6350196741459245,0.0,0.7724959633859609,0.0,1.0,-0.0,0.2,1.0,1.0, 1.0
123,0.0228,0.132,3.45,0.132,3.45,-0.7194995983693585,0.0,-0.6944928566560867,0.0,1.0,0.0,0.2,1.0,1.0, 1.0
124,0.0228,0.132,3.45,0.132,3.45,-0.7195751706636057,0.0,-0.6944145546893749,0.0,1.0,0.0,0.2,1.0,1.0, 1.0
125,0.0228,0.132,3.45,0.132,3.45,-0.3245727246177762,0.0,-0.9458607436796356,0.0,1.0,0.0,0.2,1.0,1.0, 1.0
126,0.0228,0.132,3.45,0.132,3.45,-0.32468460819632533,0.0,-0.9458223433607384,0.0,1.0,0.0,0.2,1.0,1.0, 1.0
127,0.0228,0.132,3.45,0.132,3.45,-0.19287708602430428,0.0,-0.9812229255815281,0.0,1.0,0.0,0.2,1.0,1.0, 1.0
128,0.0228,0.132,3.45,0.132,3.45,-0.19296426899696875,0.0,-0.9812057841709177,0.0,1.0,0.0,0.2,1.0,1.0, 1.0
129,0.0228,0.132,3.45,0.132,3.45,-0.14611818124987552,0.0,-0.9892671414275461,0.0,1.0,0.0,0.2,1.0,1.0, 1.0
130,0.0228,0.132,3.45,0.132,3.45,-0.14637146398933115,0.0,-0.989229697557458,0.0,1.0,0.0,0.2,1.0,1.0, 1.0
131,0.0228,0.132,3.45,0.132,3.45,-0.12889714783888184,0.0,-0.9916579678896356,0.0,1.0,0.0,0.2,1.0,1.0, 1.0
132,0.0228,0.132,3.45,0.132,3.45,-0.1291065266316426,0.0,-0.9916307300508153,0.0,1.0,0.0,0.2,1.0,1.0, 1.0
133,0.0228,0.132,3.45,0.132,3.45,-0.11718754363189209,0.0,-0.9931098023972593,0.0,1.0,0.0,0.2,1.0,1.0, 1.0
134,0.0228,0.132,3.45,0.132,3.45,-0.1173884817557991,0.0,-0.993086070968206,0.0,1.0,0.0,0.2,1.0,1.0, 1.0
135,0.0228,0.132,3.45,0.132,3.45,-0.11518864752573385,0.0,-0.9933436341373475,0.0,1.0,0.0,0.2,1.0,1.0, 1.0
136,0.0228,0.132,3.45,0.132,3.45,-0.11536365054324033,0.0,-0.9933233250726257,0.0,1.0,0.0,0.2,1.0,1.0, 1.0
137,0.0228,0.132,3.45,0.132,3.45,-0.11620470449966831,0.0,-0.9932252849440276,0.0,1.0,0.0,0.2,1.0,1.0, 1.0
138,0.0228,0.132,3.45,0.132,3.45,-0.11635875877178321,0.0,-0.9932072488947561,0.0,1.0,0.0,0.2,1.0,1.0, 1.0
139,0.0228,0.132,3.45,0.132,3.45,-0.11306429728861599,0.0,-0.9935876733729296,0.0,1.0,0.0,0.2,1.0,1.0, 1.0
140,0.0228,0.132,3.45,0.132,3.45,-0.11323327773585823,0.0,-0.99356842985936,0.0,1.0,0.0,0.2,1.0,1.0, 1.0
141,0.0228,0.132,3.45,0.132,3.45,-0.10891527853982096,0.0,-0.9940510359637442,0.0,1.0,0.0,0.2,1.0,1.0, 1.0
142,0.0228,0.132,3.45,0.132,3.45,-0.10906167499330081,0.0,-0.9940349848207836,0.0,1.0,0.0,0.2,1.0,1.0, 1.0
143,0.0228,0.132,3.45,0.132,3.45,-0.10826097366555283,0.0,-0.9941225083363652,0.0,1.0,0.0,0.2,1.0,1.0, 1.0
144,0.0228,0.132,3.45,0.132,3.45,-0.10835651047375935,0.0,-0.9941120996336129,0.0,1.0,0.0,0.2,1.0,1.0, 1.0
145,0.0228,0.132,3.45,0.132,3.45,-0.1117039793286134,0.0,-0.9937415262542633,0.0,1.0,0.0,0.2,1.0,1.0, 1.0
146,0.0228,0.132,3.45,0.132,3.45,-0.11171248272369673,0.0,-0.9937405703722214,0.0,1.0,0.0,0.2,1.0,1.0, 1.0
147,0.0228,0.132,3.45,0.132,3.45,-0.11020299216778644,0.0,-0.993909100731685,0.0,1.0,0.0,0.2,1.0,1.0, 1.0
148,0.0228,0.132,3.45,0.132,3.45,-0.11024638657974753,0.0,-0.993904288272321,0.0,1.0,0.0,0.2,1.0,1.0, 1.0
149,0.0228,0.132,3.45,0.132,3.45,-0.9936011090611186,0.0,-0.11294616448784327,0.0,1.0,0.0,0.2,1.0,1.0, 1.0
150,0.0228,0.132,3.45,0.132,3.45,-0.9936014135666037,0.0,-0.11294348568397783,0.0,1.0,0.0,0.2,1.0,1.0, 1.0
151,0.0228,0.132,3.45,0.132,3.45,-0.9432477248514235,0.0,-0.3320899419774911,0.0,1.0,0.0,0.2,1.0,1.0, 1.0
152,0.0228,0.132,3.45,0.132,3.45,-0.9432476840181697,0.0,-0.3320900579577158,0.0,1.0,0.0,0.2,1.0,1.0, 1.0
153,0.0228,0.132,3.45,0.132,3.45,-0.8455358536756211,0.0,-0.5339186456278133,0.0,1.0,0.0,0.2,1.0,1.0, 1.0
154,0.0228,0.132,3.45,0.132,3.45,-0.8455357352394798,0.0,-0.5339188331881844,0.0,1.0,0.0,0.2,1.0,1.0, 1.0
155,0.0228,0.132,3.45,0.132,3.45,-0.7060218380354557,0.0,-0.7081900622128476,0.0,1.0,0.0,0.2,1.0,1.0, 1.0
156,0.0228,0.132,3.45,0.132,3.45,-0.7060188418568349,0.0,-0.7081930492056058,0.0,1.0,0.0,0.2,1.0,1.0, 1.0
157,0.0228,0.132,3.45,0.132,3.45,-0.32908881729313294,0.0,-0.9442989729596273,0.0,1.0,0.0,0.2,1.0,1.0, 1.0
158,0.0228,0.132,3.45,0.132,3.45,-0.32909595971260713,0.0,-0.9442964837914192,0.0,1.0,0.0,0.2,1.0,1.0, 1.0
159,0.0228,0.132,3.45,0.132,3.45,-0.5310024478173765,0.0,-0.8473702853015053,0.0,1.0,0.0,0.2,1.0,1.0, 1.0
160,0.0228,0.132,3.45,0.132,3.45,-0.5310137096914145,0.0,-0.8473632279723743,0.0,1.0,0.0,0.2,1.0,1.0, 1.0
161,0.0228,0.132,3.45,0.132,3.45,-0.9933181127623274,0.0,-0.11540852160169272,0.0,1.0,0.0,0.2,1.0,1.0, 1.0
162,0.0228,0.132,3.45,0.132,3.45,-0.9933170745741929,0.0,-0.11541745690911452,0.0,1.0,0.0,0.2,1.0,1.0, 1.0
163,0.0228,0.132,3.45,0.132,3.45,-0.9927932106568109,0.0,-0.11984006372553822,0.0,1.0,0.0,0.2,1.0,1.0, 1.0
164,0.0228,0.132,3.45,0.132,3.45,-0.9927841607313034,0.0,-0.11991501240896195,0.0,1.0,0.0,0.2,1.0,1.0, 1.0
165,0.0228,0.132,3.45,0.132,3.45,-0.991982045588221,0.0,-0.12637887968568393,0.0,1.0,0.0,0.2,1.0,1.0, 1.0
166,0.0228,0.132,3.45,0.132,3.45,-0.991960351804436,0.0,-0.12654904364719408,0.0,1.0,0.0,0.2,1.0,1.0, 1.0
167,0.0228,0.132,3.45,0.132,3.45,-0.9913145094952768,0.0,-0.1315125213207426,0.0,1.0,0.0,0.2,1.0,1.0, 1.0
168,0.0228,0.132,3.45,0.132,3.45,-0.9912891981076738,0.0,-0.13170317275998006,0.0,1.0,0.0,0.2,1.0,1.0, 1.0
169,0.0228,0.132,3.45,0.132,3.45,-0.990764217571545,0.0,-0.13559596299242924,0.0,1.0,0.0,0.2,1.0,1.0, 1.0
170,0.0228,0.132,3.45,0.132,3.45,-0.9907390720870113,0.0,-0.13577956783024472,0.0,1.0,0.0,0.2,1.0,1.0, 1.0
171,0.0228,0.132,3.45,0.132,3.45,-0.9910685345612169,0.0,-0.13335351439944132,0.0,1.0,0.0,0.2,1.0,1.0, 1.0
172,0.0228,0.132,3.45,0.132,3.45,-0.9910377000751962,0.0,-0.1335824727637033,0.0,1.0,0.0,0.2,1.0,1.0, 1.0
173,0.0228,0.132,3.45,0.132,3.45,-0.9908551508429552,0.0,-0.13492987085143351,0.0,1.0,0.0,0.2,1.0,1.0, 1.0
174,0.0228,0.132,3.45,0.132,3.45,-0.9908278057295563,0.0,-0.1351305272436714,0.0,1.0,0.0,0.2,1.0,1.0, 1.0
175,0.0228,0.132,3.45,0.132,3.45,-0.9868157482504004,0.0,-0.16184770311932808,0.0,1.0,0.0,0.2,1.0,1.0, 1.0
176,0.0228,0.132,3.45,0.132,3.45,-0.9867900517436237,0.0,-0.162004301732443,0.0,1.0,0.0,0.2,1.0,1.0, 1.0
177,0.0228,0.132,3.45,0.132,3.45,-0.9764326220691344,0.0,-0.21582246073843905,0.0,1.0,0.0,0.2,1.0,1.0, 1.0
178,0.0228,0.132,3.45,0.132,3.45,-0.9764023999431158,0.0,-0.21595914749165795,0.0,1.0,0.0,0.2,1.0,1.0, 1.0
179,0.0228,0.132,3.45,0.132,3.45,-0.944479444821747,0.0,-0.3285705073636475,0.0,1.0,0.0,0.2,1.0,1.0, 1.0
180,0.0228,0.132,3.45,0.132,3.45,-0.9444552256769546,0.0,-0.32864011728864245,0.0,1.0,0.0,0.2,1.0,1.0, 1.0
181,0.0228,0.132,3.45,0.132,3.45,-0.3256765442131861,0.0,-0.9454812470638202,0.0,1.0,0.0,0.2,1.0,1.0, 1.0
182,0.0228,0.132,3.45,0.132,3.45,-0.32570215189454094,0.0,-0.9454724259603056,0.0,1.0,0.0,0.2,1.0,1.0, 1.0
183,0.0228,0.132,3.45,0.132,3.45,-0.5270236121627112,0.0,-0.8498506411264087,0.0,1.0,0.0,0.2,1.0,1.0, 1.0
184,0.0228,0.132,3.45,0.132,3.45,-0.5270330118502689,0.0,-0.8498448119627691,0.0,1.0,0.0,0.2,1.0,1.0, 1.0
185,0.0228,0.132,3.45,0.132,3.45,-0.7020616400557808,0.0,-0.7121161798205313,0.0,1.0,0.0,0.2,1.0,1.0, 1.0
186,0.0228,0.132,3.45,0.132,3.45,-0.7020504508752557,0.0,-0.7121272108449797,0.0,1.0,0.0,0.2,1.0,1.0, 1.0
187,0.0228,0.132,3.45,0.132,3.45,-0.8420526510718718,0.0,-0.5393953400084511,0.0,1.0,0.0,0.2,1.0,1.0, 1.0
188,0.0228,0.132,3.45,0.132,3.45,-0.842036731648433,0.0,-0.5394201910893074,0.0,1.0,0.0,0.2,1.0,1.0, 1.0
189,0.0228,0.132,3.45,0.132,3.45,-0.9412405832893952,0.0,-0.337736827084402,0.0,1.0,0.0,0.2,1.0,1.0, 1.0
190,0.0228,0.132,3.45,0.132,3.45,-0.941230823584934,0.0,-0.3377640252211989,0.0,1.0,0.0,0.2,1.0,1.0, 1.0
191,0.0228,0.132,3.45,0.132,3.45,-0.9364889758854181,0.0,-0.35069701744537357,0.0,1.0,0.0,0.2,1.0,1.0, 1.0
192,0.0228,0.132,3.45,0.132,3.45,-0.9364654878637897,0.0,-0.3507597326376478,0.0,1.0,0.0,0.2,1.0,1.0, 1.0
193,0.0228,0.132,3.45,0.132,3.45,-0.9282117370407599,0.0,-0.3720523769844445,0.0,1.0,0.0,0.2,1.0,1.0, 1.0
194,0.0228,0.132,3.45,0.132,3.45,-0.9281758675925555,0.0,-0.3721418530867049,0.0,1.0,0.0,0.2,1.0,1.0, 1.0
195,0.0228,0.132,3.45,0.132,3.45,-0.920340290325928,0.0,-0.39111858815810147,0.0,1.0,0.0,0.2,1.0,1.0, 1.0
196,0.0228,0.132,3.45,0.132,3.45,-0.9203005262788553,0.0,-0.39121214363930734,0.0,1.0,0.0,0.2,1.0,1.0, 1.0
197,0.0228,0.132,3.45,0.132,3.45,-0.9210972994344406,0.0,-0.3893324607255097,0.0,1.0,0.0,0.2,1.0,1.0, 1.0
198,0.0228,0.132,3.45,0.132,3.45,-0.9210788693333809,0.0,-0.389376060470518,0.0,1.0,0.0,0.2,1.0,1.0, 1.0
199,0.0228,0.132,3.45,0.132,3.45,-0.9281812891729322,0.0,-0.37212833059211414,0.0,1.0,0.0,0.2,1.0,1.0, 1.0
200,0.0228,0.132,3.45,0.132,3.45,-0.9281585166484334,0.0,-0.37218512594269526,0.0,1.0,0.0,0.2,1.0,1.0, 1.0
201,0.0228,0.132,3.45,0.132,3.45,-0.9221262238138349,0.0,-0.386889166758178,0.0,1.0,0.0,0.2,1.0,1.0, 1.0
202,0.0228,0.132,3.45,0.132,3.45,-0.9221534826318105,0.0,-0.386824190647409,0.0,1.0,0.0,0.2,1.0,1.0, 1.0
203,0.0228,0.132,3.45,0.132,3.45,-0.8915729379248898,0.0,-0.4528771316372474,0.0,1.0,0.0,0.2,1.0,1.0, 1.0
204,0.0228,0.132,3.45,0.132,3.45,-0.891588717830349,0.0,-0.4528460646153771,0.0,1.0,0.0,0.2,1.0,1.0, 1.0
205,0.0228,0.132,3.45,0.132,3.45,-0.8325755127094747,0.0,-0.5539115593996531,0.0,1.0,0.0,0.2,1.0,1.0, 1.0
206,0.0228,0.132,3.45,0.132,3.45,-0.8325696307767947,0.0,-0.5539204003358169,0.0,1.0,0.0,0.2,1.0,1.0, 1.0
207,0.0228,0.132,3.45,0.132,3.45,-0.6952460379370732,0.0,-0.7187718321781966,0.0,1.0,0.0,0.2,1.0,1.0, 1.0
208,0.0228,0.132,3.45,0.132,3.45,-0.69528938081124,0.0,-0.7187299054103164,0.0,1.0,0.0,0.2,1.0,1.0, 1.0
209,0.0228,0.132,3.45,0.132,3.45,-0.49093062436691776,0.0,-0.8711986696837344,0.0,1.0,0.0,0.2,1.0,1.0, 1.0
210,0.0228,0.132,3.45,0.132,3.45,-0.490871310690619,0.0,-0.871232090972821,0.0,1.0,0.0,0.2,1.0,1.0, 1.0
211,0.0228,0.132,3.45,0.132,3.45,-0.41604805279516643,0.0,-0.9093426294666661,0.0,1.0,0.0,0.2,1.0,1.0, 1.0
212,0.0228,0.132,3.45,0.132,3.45,-0.4162752535464404,0.0,-0.9092386448479006,0.0,1.0,0.0,0.2,1.0,1.0, 1.0
213,0.0228,0.132,3.45,0.132,3.45,-0.37994001485275203,0.0,-0.9250111270215567,0.0,1.0,0.0,0.2,1.0,1.0, 1.0
214,0.0228,0.132,3.45,0.132,3.45,-0.3798139804401861,0.0,-0.9250628844906609,0.0,1.0,0.0,0.2,1.0,1.0, 1.0
215,0.0228,0.132,3.45,0.132,3.45,-0.3343083809521966,0.0,-0.942463742764209,0.0,1.0,0.0,0.2,1.0,1.0, 1.0
216,0.0228,0.132,3.45,0.132,3.45,-0.3343458743319447,0.0,-0.9424504423667102,0.0,1.0,0.0,0.2,1.0,1.0, 1.0
217,0.0228,0.132,3.45,0.132,3.45,-0.33696500131677737,0.0,-0.9415171734427282,0.0,1.0,0.0,0.2,1.0,1.0, 1.0
218,0.0228,0.132,3.45,0.132,3.45,-0.33697793615295935,0.0,-0.9415125440195112,0.0,1.0,0.0,0.2,1.0,1.0, 1.0
219,0.0228,0.132,3.45,0.132,3.45,-0.34825029500749005,0.0,-0.9374015852489241,0.0,1.0,0.0,0.2,1.0,1.0, 1.0
220,0.0228,0.132,3.45,0.132,3.45,-0.3482576080892821,0.0,-0.9373988683628394,0.0,1.0,0.0,0.2,1.0,1.0, 1.0
221,0.0228,0.132,3.45,0.132,3.45,-0.3352823744198128,0.0,-0.9421176834150883,0.0,1.0,0.0,0.2,1.0,1.0, 1.0
222,0.0228,0.132,3.45,0.132,3.45,-0.33533943739152017,0.0,-0.9420973738048201,0.0,1.0,0.0,0.2,1.0,1.0, 1.0
223,0.0228,0.132,3.45,0.132,3.45,-0.3190982551324132,0.0,-0.9477216382311049,0.0,1.0,0.0,0.2,1.0,1.0, 1.0
224,0.0228,0.132,3.45,0.132,3.45,-0.3191668275877063,0.0,-0.9476985470958574,0.0,1.0,0.0,0.2,1.0,1.0, 1.0
225,0.0228,0.132,3.45,0.132,3.45,-0.3195490072993661,0.0,-0.9475697504321198,0.0,1.0,0.0,0.2,1.0,1.0, 1.0
226,0.0228,0.132,3.45,0.132,3.45,-0.31961842095027426,0.0,-0.9475463392305694,0.0,1.0,0.0,0.2,1.0,1.0, 1.0
227,0.0228,0.132,3.45,0.132,3.45,-0.8325902416494416,0.0,-0.5538894199297584,0.0,1.0,0.0,0.2,1.0,1.0, 1.0
228,0.0228,0.132,3.45,0.132,3.45,-0.8325771433637902,0.0,-0.5539091083816826,0.0,1.0,0.0,0.2,1.0,1.0, 1.0
229,0.0228,0.132,3.45,0.132,3.45,-0.8062018670706105,0.0,-0.5916405577137709,0.0,1.0,0.0,0.2,1.0,1.0, 1.0
230,0.0228,0.132,3.45,0.132,3.45,-0.8061791729923671,0.0,-0.59167148066587,0.0,1.0,0.0,0.2,1.0,1.0, 1.0
231,0.0228,0.132,3.45,0.132,3.45,-0.7759509474580621,0.0,-0.6307932522934402,0.0,1.0,0.0,0.2,1.0,1.0, 1.0
232,0.0228,0.132,3.45,0.132,3.45,-0.7759005151107647,0.0,-0.6308552850304499,0.0,1.0,0.0,0.2,1.0,1.0, 1.0
233,0.0228,0.132,3.45,0.132,3.45,-0.7932712792742724,0.0,-0.6088683580861789,0.0,1.0,0.0,0.2,1.0,1.0, 1.0
234,0.0228,0.132,3.45,0.132,3.45,-0.7932681044694821,0.0,-0.6088724943954971,0.0,1.0,0.0,0.2,1.0,1.0, 1.0
235,0.0228,0.132,3.45,0.132,3.45,-0.8280151330585477,0.0,-0.5607057511975738,0.0,1.0,0.0,0.2,1.0,1.0, 1.0
236,0.0228,0.132,3.45,0.132,3.45,-0.8279885865543675,0.0,-0.5607449514134751,0.0,1.0,0.0,0.2,1.0,1.0, 1.0
237,0.0228,0.132,3.45,0.132,3.45,-0.8039985532732379,0.0,-0.5946312524031516,0.0,1.0,0.0,0.2,1.0,1.0, 1.0
238,0.0228,0.132,3.45,0.132,3.45,-0.8040411562547827,0.0,-0.5945736447644413,0.0,1.0,0.0,0.2,1.0,1.0, 1.0
239,0.0228,0.132,3.45,0.132,3.45,-0.7244330393645133,0.0,-0.6893451758568371,0.0,1.0,0.0,0.2,1.0,1.0, 1.0
240,0.0228,0.132,3.45,0.132,3.45,-0.7243448297621927,0.0,-0.6894378634777611,0.0,1.0,0.0,0.2,1.0,1.0, 1.0
241,0.0228,0.132,3.45,0.132,3.45,-0.6393434690378335,0.0,-0.7689212759435576,0.0,1.0,0.0,0.2,1.0,1.0, 1.0
242,0.0228,0.132,3.45,0.132,3.45,-0.639176704702325,0.0,-0.769059906747112,0.0,1.0,0.0,0.2,1.0,1.0, 1.0
243,0.0228,0.132,3.45,0.132,3.45,-0.5768986061720618,0.0,-0.8168157675980137,0.0,1.0,0.0,0.2,1.0,1.0, 1.0
244,0.0228,0.132,3.45,0.132,3.45,-0.5769315427981813,0.0,-0.8167925042044095,0.0,1.0,0.0,0.2,1.0,1.0, 1.0
245,0.0228,0.132,3.45,0.132,3.45,-0.5131485499072779,0.0,-0.8582998110963664,0.0,1.0,0.0,0.2,1.0,1.0, 1.0
246,0.0228,0.132,3.45,0.132,3.45,-0.5131965263425144,0.0,-0.8582711257813447,0.0,1.0,0.0,0.2,1.0,1.0, 1.0
247,0.0228,0.132,3.45,0.132,3.45,-0.5178763865207024,0.0,-0.855455462478474,0.0,1.0,0.0,0.2,1.0,1.0, 1.0
248,0.0228,0.132,3.45,0.132,3.45,-0.5178850184311844,0.0,-0.8554502368253408,0.0,1.0,0.0,0.2,1.0,1.0, 1.0
249,0.0228,0.132,3.45,0.132,3.45,-0.691884367213242,0.0,-0.7220083257178768,0.0,1.0,0.0,0.2,1.0,1.0, 1.0
250,0.0228,0.132,3.45,0.132,3.45,-0.6918794947928407,0.0,-0.7220129948174087,0.0,1.0,0.0,0.2,1.0,1.0, 1.0
251,0.0228,0.132,3.45,0.132,3.45,-0.5048538334779235,0.0,-0.8632048463850542,0.0,1.0,0.0,0.2,1.0,1.0, 1.0
252,0.0228,0.132,3.45,0.132,3.45,-0.5048534900321172,0.0,-0.863205047252616,0.0,1.0,0.0,0.2,1.0,1.0, 1.0
253,0.0228,0.132,3.45,0.132,3.45,-0.6589533354096438,0.0,-0.7521838217832828,0.0,1.0,0.0,0.2,1.0,1.0, 1.0
254,0.0228,0.132,3.45,0.132,3.45,-0.6589656563826582,0.0,-0.7521730277723153,0.0,1.0,0.0,0.2,1.0,1.0, 1.0
255,0.0228,0.132,3.45,0.132,3.45,-0.5405240672813766,0.0,-0.8413285521659168,0.0,1.0,0.0,0.2,1.0,1.0, 1.0
256,0.0228,0.132,3.45,0.132,3.45,-0.5405258818848178,0.0,-0.8413273863441271,0.0,1.0,0.0,0.2,1.0,1.0, 1.0
257,0.0228,0.132,3.45,0.132,3.45,-0.574216830453948,0.0,-0.8187032622528274,0.0,1.0,0.0,0.2,1.0,1.0, 1.0
258,0.0228,0.132,3.45,0.132,3.45,-0.5741704391455148,0.0,-0.818735797929617,0.0,1.0,0.0,0.2,1.0,1.0, 1.0
259,0.0228,0.132,3.45,0.132,3.45,-0.5301706129324154,0.0,-0.8478909842561526,0.0,1.0,0.0,0.2,1.0,1.0, 1.0
260,0.0228,0.132,3.45,0.132,3.45,-0.5301801212568584,0.0,-0.8478850388018785,0.0,1.0,0.0,0.2,1.0,1.0, 1.0
261,0.0228,0.132,3.45,0.132,3.45,-0.6520168100498384,0.0,-0.758204510282307,0.0,1.0,0.0,0.2,1.0,1.0, 1.0
262,0.0228,0.132,3.45,0.132,3.45,-0.652051717831081,0.0,-0.7581744899912793,0.0,1.0,0.0,0.2,1.0,1.0, 1.0
263,0.0228,0.132,3.45,0.132,3.45,-0.7113517968475568,0.0,-0.7028361267904149,0.0,1.0,0.0,0.2,1.0,1.0, 1.0
264,0.0228,0.132,3.45,0.132,3.45,-0.7114425350782323,0.0,-0.7027442773025322,0.0,1.0,0.0,0.2,1.0,1.0, 1.0
265,0.0228,0.132,3.45,0.132,3.45,0.7159222769574045,0.0,-0.6981799863617728,0.0,1.0,0.0,0.2,1.0,1.0, 1.0
266,0.0228,0.132,3.45,0.132,3.45,0.7159936321715634,0.0,-0.6981068103734356,0.0,1.0,0.0,0.2,1.0,1.0, 1.0
267,0.0228,0.132,3.45,0.132,3.45,0.9438275574840355,0.0,-0.3304384083815313,0.0,1.0,0.0,0.2,1.0,1.0, 1.0
268,0.0228,0.132,3.45,0.132,3.45,0.9437818702383529,0.0,-0.3305688754395922,0.0,1.0,0.0,0.2,1.0,1.0, 1.0
269,0.0228,0.132,3.45,0.132,3.45,0.9725232903032849,0.0,-0.23280560521102733,0.0,1.0,0.0,0.2,1.0,1.0, 1.0
270,0.0228,0.132,3.45,0.132,3.45,0.9724052012477985,0.0,-0.23329835958752151,0.0,1.0,0.0,0.2,1.0,1.0, 1.0
271,0.0228,0.132,3.45,0.132,3.45,0.9799526087179512,0.0,-0.19923073223496926,0.0,1.0,0.0,0.2,1.0,1.0, 1.0
272,0.0228,0.132,3.45,0.132,3.45,0.9798215230476818,0.0,-0.19987441800420883,0.0,1.0,0.0,0.2,1.0,1.0, 1.0
273,0.0228,0.132,3.45,0.132,3.45,0.9818665578647117,0.0,-0.18957336982525508,0.0,1.0,0.0,0.2,1.0,1.0, 1.0
274,0.0228,0.132,3.45,0.132,3.45,0.9817199523841688,0.0,-0.190331119606924,0.0,1.0,0.0,0.2,1.0,1.0, 1.0
275,0.0228,0.132,3.45,0.132,3.45,0.9828718755519926,0.0,-0.1842901957481957,0.0,1.0,0.0,0.2,1.0,1.0, 1.0
276,0.0228,0.132,3.45,0.132,3.45,0.9827878756104018,0.0,-0.1847376289584591,0.0,1.0,0.0,0.2,1.0,1.0, 1.0
277,0.0228,0.132,3.45,0.132,3.45,0.9866306453716328,0.0,-0.16297229707393748,0.0,1.0,0.0,0.2,1.0,1.0, 1.0
278,0.0228,0.132,3.45,0.132,3.45,0.9865946833659013,0.0,-0.16318986106415137,0.0,1.0,0.0,0.2,1.0,1.0, 1.0
279,0.0228,0.132,3.45,0.132,3.45,0.9891784106942245,0.0,-0.1467176602064248,0.0,1.0,0.0,0.2,1.0,1.0, 1.0
280,0.0228,0.132,3.45,0.132,3.45,0.9891516195051062,0.0,-0.1468981743604244,0.0,1.0,0.0,0.2,1.0,1.0, 1.0
281,0.0228,0.132,3.45,0.132,3.45,0.9914926689846245,0.0,-0.1301625420378157,0.0,1.0,0.0,0.2,1.0,1.0, 1.0
282,0.0228,0.132,3.45,0.132,3.45,0.9914678847898368,0.0,-0.1303511926695223,0.0,1.0,0.0,0.2,1.0,1.0, 1.0
283,0.0228,0.132,3.45,0.132,3.45,0.9930256765986115,0.0,-0.11789828504210574,0.0,1.0,0.0,0.2,1.0,1.0, 1.0
284,0.0228,0.132,3.45,0.132,3.45,0.993012875131526,0.0,-0.11800605841659174,0.0,1.0,0.0,0.2,1.0,1.0, 1.0
285,0.0228,0.132,3.45,0.132,3.45,0.9929078430268141,0.0,-0.1188865646565653,0.0,1.0,0.0,0.2,1.0,1.0, 1.0
286,0.0228,0.132,3.45,0.132,3.45,0.9929069894134378,0.0,-0.11889369358356763,0.0,1.0,0.0,0.2,1.0,1.0, 1.0
287,0.0228,0.132,3.45,0.132,3.45,0.9933476646320322,0.0,-0.11515388473728384,0.0,1.0,0.0,0.2,1.0,1.0, 1.0
288,0.0228,0.132,3.45,0.132,3.45,0.9933502788763063,0.0,-0.11513133134105812,0.0,1.0,0.0,0.2,1.0,1.0, 1.0
289,0.0228,0.132,3.45,0.132,3.45,0.9408106887293208,0.0,-0.3389325124160575,0.0,1.0,0.0,0.2,1.0,1.0, 1.0
290,0.0228,0.132,3.45,0.132,3.45,0.9408187341620533,0.0,-0.3389101790293584,0.0,1.0,0.0,0.2,1.0,1.0, 1.0
291,0.0228,0.132,3.45,0.132,3.45,0.841582062419437,0.0,-0.5401292736131295,0.0,1.0,0.0,0.2,1.0,1.0, 1.0
292,0.0228,0.132,3.45,0.132,3.45,0.8415943918297157,0.0,-0.5401100625250106,0.0,1.0,0.0,0.2,1.0,1.0, 1.0
293,0.0228,0.132,3.45,0.132,3.45,0.703964967462086,0.0,-0.7102346968334512,0.0,1.0,0.0,0.2,1.0,1.0, 1.0
294,0.0228,0.132,3.45,0.132,3.45,0.7039743951670796,0.0,-0.7102253522292374,0.0,1.0,0.0,0.2,1.0,1.0, 1.0
295,0.0228,0.132,3.45,0.132,3.45,0.5331040976437443,0.0,-0.8460496563887069,0.0,1.0,0.0,0.2,1.0,1.0, 1.0
296,0.0228,0.132,3.45,0.132,3.45,0.5331112253728739,0.0,-0.8460451650954769,0.0,1.0,0.0,0.2,1.0,1.0, 1.0
297,0.0228,0.132,3.45,0.132,3.45,0.3341788747500023,0.0,-0.9425096708632873,0.0,1.0,0.0,0.2,1.0,1.0, 1.0
298,0.0228,0.132,3.45,0.132,3.45,0.3341666191935634,0.0,-0.9425140161380859,0.0,1.0,0.0,0.2,1.0,1.0, 1.0
299,0.0228,0.132,3.45,0.132,3.45,0.11401566148647396,0.0,-0.9934789524372429,0.0,1.0,0.0,0.2,1.0,1.0, 1.0
300,0.0228,0.132,3.45,0.132,3.45,0.11400304425705943,0.0,-0.9934804003603307,0.0,1.0,0.0,0.2,1.0,1.0, 1.0
301,0.0228,0.132,3.45,0.132,3.45,0.11479889074932403,0.0,-0.9933887530482338,0.0,1.0,0.0,0.2,1.0,1.0, 1.0
302,0.0228,0.132,3.45,0.132,3.45,0.1148057484642196,0.0,-0.9933879605267875,0.0,1.0,0.0,0.2,1.0,1.0, 1.0
303,0.0228,0.132,3.45,0.132,3.45,0.11029061620916134,0.0,-0.9938993812133113,0.0,1.0,0.0,0.2,1.0,1.0, 1.0
304,0.0228,0.132,3.45,0.132,3.45,0.1103633288263409,0.0,-0.9938913097770646,0.0,1.0,0.0,0.2,1.0,1.0, 1.0
305,0.0228,0.132,3.45,0.132,3.45,0.11503333209472061,0.0,-0.9933616322906708,0.0,1.0,0.0,0.2,1.0,1.0, 1.0
306,0.0228,0.132,3.45,0.132,3.45,0.11520113461798544,0.0,-0.993342186048055,0.0,1.0,0.0,0.2,1.0,1.0, 1.0
307,0.0228,0.132,3.45,0.132,3.45,0.12341960687736801,0.0,-0.9923545740501407,0.0,1.0,0.0,0.2,1.0,1.0, 1.0
308,0.0228,0.132,3.45,0.132,3.45,0.12363087451618464,0.0,-0.9923282757567494,0.0,1.0,0.0,0.2,1.0,1.0, 1.0
309,0.0228,0.132,3.45,0.132,3.45,0.132129609130452,0.0,-0.9912324482133513,0.0,1.0,0.0,0.2,1.0,1.0, 1.0
310,0.0228,0.132,3.45,0.132,3.45,0.1323483041119456,0.0,-0.9912032719874829,0.0,1.0,0.0,0.2,1.0,1.0, 1.0
311,0.0228,0.132,3.45,0.132,3.45,0.144779787248569,0.0,-0.989463901920762,0.0,1.0,0.0,0.2,1.0,1.0, 1.0
312,0.0228,0.132,3.45,0.132,3.45,0.1450042775749395,0.0,-0.9894310281596034,0.0,1.0,0.0,0.2,1.0,1.0, 1.0
313,0.0228,0.132,3.45,0.132,3.45,0.1455285713596974,0.0,-0.9893540493261275,0.0,1.0,0.0,0.2,1.0,1.0, 1.0
314,0.0228,0.132,3.45,0.132,3.45,0.1457919190743501,0.0,-0.9893152765082616,0.0,1.0,0.0,0.2,1.0,1.0, 1.0
315,0.0228,0.132,3.45,0.132,3.45,0.14327031943832313,0.0,-0.9896835936641776,0.0,1.0,0.0,0.2,1.0,1.0, 1.0
316,0.0228,0.132,3.45,0.132,3.45,0.1435011626245451,0.0,-0.9896501484491396,0.0,1.0,0.0,0.2,1.0,1.0, 1.0
317,0.0228,0.132,3.45,0.132,3.45,0.15023329150485648,0.0,-0.9886505743302924,0.0,1.0,0.0,0.2,1.0,1.0, 1.0
318,0.0228,0.132,3.45,0.132,3.45,0.15036755023773193,0.0,-0.9886301633247405,0.0,1.0,0.0,0.2,1.0,1.0, 1.0
319,0.0228,0.132,3.45,0.132,3.45,0.19521189876238307,0.0,-0.980761089451241,0.0,1.0,0.0,0.2,1.0,1.0, 1.0
320,0.0228,0.132,3.45,0.132,3.45,0.1951339242778333,0.0,-0.9807766063665736,0.0,1.0,0.0,0.2,1.0,1.0, 1.0
321,0.0228,0.132,3.45,0.132,3.45,0.32582232853511517,0.0,-0.9454310182281705,0.0,1.0,0.0,0.2,1.0,1.0, 1.0
322,0.0228,0.132,3.45,0.132,3.45,0.32590225649511995,0.0,-0.9454034690074863,0.0,1.0,0.0,0.2,1.0,1.0, 1.0
323,0.0228,0.132,3.45,0.132,3.45,0.9356433167699301,0.0,-0.35294699854760664,0.0,1.0,0.0,0.2,1.0,1.0, 1.0
324,0.0228,0.132,3.45,0.132,3.45,0.9356320791278961,0.0,-0.3529767874900705,0.0,1.0,0.0,0.2,1.0,1.0, 1.0
325,0.0228,0.132,3.45,0.132,3.45,0.8312392795690955,0.0,-0.5559147957209373,0.0,1.0,0.0,0.2,1.0,1.0, 1.0
326,0.0228,0.132,3.45,0.132,3.45,0.8312448728587649,0.0,-0.555906432186223,0.0,1.0,0.0,0.2,1.0,1.0, 1.0
327,0.0228,0.132,3.45,0.132,3.45,0.6973534129365558,0.0,-0.71672743596554,0.0,1.0,0.0,0.2,1.0,1.0, 1.0
328,0.0228,0.132,3.45,0.132,3.45,0.6973672473514002,0.0,-0.7167139752520045,0.0,1.0,0.0,0.2,1.0,1.0, 1.0
329,0.0228,0.132,3.45,0.132,3.45,0.5333154049512842,0.0,-0.845916472733359,0.0,1.0,0.0,0.2,1.0,1.0, 1.0
330,0.0228,0.132,3.45,0.132,3.45,0.5333186520287103,0.0,-0.8459144255764169,0.0,1.0,0.0,0.2,1.0,1.0, 1.0
331,0.0228,0.132,3.45,0.132,3.45,0.3366972534738321,0.0,-0.941612956316542,0.0,1.0,0.0,0.2,1.0,1.0, 1.0
332,0.0228,0.132,3.45,0.132,3.45,0.3367210688838183,0.0,-0.9416044401816184,0.0,1.0,0.0,0.2,1.0,1.0, 1.0
333,0.0228,0.132,3.45,0.132,3.45,0.3290708988488232,0.0,-0.9443052173586819,0.0,1.0,0.0,0.2,1.0,1.0, 1.0
334,0.0228,0.132,3.45,0.132,3.45,0.32913372146067416,0.0,-0.944283322630156,0.0,1.0,0.0,0.2,1.0,1.0, 1.0
335,0.0228,0.132,3.45,0.132,3.45,0.31735490860836946,0.0,-0.9483068395736548,0.0,1.0,0.0,0.2,1.0,1.0, 1.0
336,0.0228,0.132,3.45,0.132,3.45,0.3173952937667,0.0,-0.9482933235527656,0.0,1.0,0.0,0.2,1.0,1.0, 1.0
337,0.0228,0.132,3.45,0.132,3.45,0.3396219556736378,0.0,-0.9405620273136767,0.0,1.0,0.0,0.2,1.0,1.0, 1.0
338,0.0228,0.132,3.45,0.132,3.45,0.33963810148531687,0.0,-0.9405561971617908,0.0,1.0,0.0,0.2,1.0,1.0, 1.0
339,0.0228,0.132,3.45,0.132,3.45,0.7173615187456883,0.0,-0.6967011205839125,0.0,1.0,0.0,0.2,1.0,1.0, 1.0
340,0.0228,0.132,3.45,0.132,3.45,0.7176597967842941,0.0,-0.6963938656245658,0.0,1.0,0.0,0.2,1.0,1.0, 1.0
341,0.0228,0.132,3.45,0.132,3.45,0.8304114312130277,0.0,-0.557150657282867,0.0,1.0,0.0,0.2,1.0,1.0, 1.0
342,0.0228,0.132,3.45,0.132,3.45,0.830341301383808,0.0,-0.5572551688555648,0.0,1.0,0.0,0.2,1.0,1.0, 1.0
343,0.0228,0.132,3.45,0.132,3.45,0.8545172723761667,0.0,-0.5194229790939134,0.0,1.0,0.0,0.2,1.0,1.0, 1.0
344,0.0228,0.132,3.45,0.132,3.45,0.8543767694786905,0.0,-0.5196540539389225,0.0,1.0,0.0,0.2,1.0,1.0, 1.0
345,0.0228,0.132,3.45,0.132,3.45,0.8622653718602785,0.0,-0.5064567390119866,0.0,1.0,0.0,0.2,1.0,1.0, 1.0
346,0.0228,0.132,3.45,0.132,3.45,0.8621180189443866,0.0,-0.5067075304467126,0.0,1.0,0.0,0.2,1.0,1.0, 1.0
347,0.0228,0.132,3.45,0.132,3.45,0.8625424408056103,0.0,-0.5059847209245554,0.0,1.0,0.0,0.2,1.0,1.0, 1.0
348,0.0228,0.132,3.45,0.132,3.45,0.8625445838188154,0.0,-0.5059810677533564,0.0,1.0,0.0,0.2,1.0,1.0, 1.0
349,0.0228,0.132,3.45,0.132,3.45,0.39161698725137245,0.0,-0.9201283254504007,0.0,1.0,0.0,0.2,1.0,1.0, 1.0
350,0.0228,0.132,3.45,0.132,3.45,0.3916127946072931,0.0,-0.9201301098756992,0.0,1.0,0.0,0.2,1.0,1.0, 1.0
351,0.0228,0.132,3.45,0.132,3.45,0.8871669221070643,0.0,-0.46144864537571045,0.0,1.0,0.0,0.2,1.0,1.0, 1.0
352,0.0228,0.132,3.45,0.132,3.45,0.8872046729227372,0.0,-0.461376059569695,0.0,1.0,0.0,0.2,1.0,1.0, 1.0
353,0.0228,0.132,3.45,0.132,3.45,0.422884661738312,0.0,-0.9061835150048103,0.0,1.0,0.0,0.2,1.0,1.0, 1.0
354,0.0228,0.132,3.45,0.132,3.45,0.42288193596990387,0.0,-0.9061847870221316,0.0,1.0,0.0,0.2,1.0,1.0, 1.0
355,0.0228,0.132,3.45,0.132,3.45,0.9336175250050146,0.0,-0.35827128967238053,0.0,1.0,0.0,0.2,1.0,1.0, 1.0
356,0.0228,0.132,3.45,0.132,3.45,0.9335864368520131,0.0,-0.35835229164324034,0.0,1.0,0.0,0.2,1.0,1.0, 1.0
357,0.0228,0.132,3.45,0.132,3.45,0.5165105732558644,0.0,-0.8562808112499651,0.0,1.0,0.0,0.2,1.0,1.0, 1.0
358,0.0228,0.132,3.45,0.132,3.45,0.5165012192592278,0.0,-0.8562864535327713,0.0,1.0,0.0,0.2,1.0,1.0, 1.0
359,0.0228,0.132,3.45,0.132,3.45,0.646616807642092,0.0,-0.7628149867921776,0.0,1.0,0.0,0.2,1.0,1.0, 1.0
360,0.0228,0.132,3.45,0.132,3.45,0.646461613361727,0.0,-0.7629465134921013,0.0,1.0,0.0,0.2,1.0,1.0, 1.0
361,0.0228,0.132,3.45,0.132,3.45,0.665170956040352,0.0,-0.7466911002820135,0.0,1.0,0.0,0.2,1.0,1.0, 1.0
362,0.0228,0.132,3.45,0.132,3.45,0.6650932317697994,0.0,-0.746760331735694,0.0,1.0,0.0,0.2,1.0,1.0, 1.0
363,0.0228,0.132,3.45,0.132,3.45,0.667737286757688,0.0,-0.744397014954709,0.0,1.0,0.0,0.2,1.0,1.0, 1.0
364,0.0228,0.132,3.45,0.132,3.45,0.6677048045178721,0.0,-0.7444261508193745,0.0,1.0,0.0,0.2,1.0,1.0, 1.0
365,0.0228,0.132,3.45,0.132,3.45,0.5321401923462575,0.0,-0.8466562559207179,0.0,1.0,0.0,0.2,1.0,1.0, 1.0
366,0.0228,0.132,3.45,0.132,3.45,0.5321220221977809,0.0,-0.8466676759462028,0.0,1.0,0.0,0.2,1.0,1.0, 1.0
367,0.0228,0.132,3.45,0.132,3.45,0.7580007230314225,0.0,-0.6522537112840683,0.0,1.0,0.0,0.2,1.0,1.0, 1.0
368,0.0228,0.132,3.45,0.132,3.45,0.7580302209518064,0.0,-0.6522194294282835,0.0,1.0,0.0,0.2,1.0,1.0, 1.0
369,0.0228,0.132,3.45,0.132,3.45,0.6997541112486472,0.0,-0.7143837790645977,0.0,1.0,0.0,0.2,1.0,1.0, 1.0
370,0.0228,0.132,3.45,0.132,3.45,0.6997469162181429,0.0,-0.714390826679066,0.0,1.0,0.0,0.2,1.0,1.0, 1.0
371,0.0228,0.132,3.45,0.132,3.45,0.8278396231614769,0.0,-0.56096484588953,0.0,1.0,0.0,0.2,1.0,1.0, 1.0
372,0.0228,0.132,3.45,0.132,3.45,0.8278368614817944,0.0,-0.5609689213958048,0.0,1.0,0.0,0.2,1.0,1.0, 1.0
373,0.0228,0.132,3.45,0.132,3.45,0.4823364369737602,0.0,-0.87598605101192,0.0,1.0,0.0,0.2,1.0,1.0, 1.0
374,0.0228,0.132,3.45,0.132,3.45,0.48232347759563493,0.0,-0.8759931865945378,0.0,1.0,0.0,0.2,1.0,1.0, 1.0
375,0.0228,0.132,3.45,0.132,3.45,0.6103704313475382,0.0,-0.7921161130393827,0.0,1.0,0.0,0.2,1.0,1.0, 1.0
376,0.0228,0.132,3.45,0.132,3.45,0.6104226757756226,0.0,-0.79207585299574,0.0,1.0,0.0,0.2,1.0,1.0, 1.0
377,0.0228,0.132,3.45,0.132,3.45,0.9204815606966494,0.0,-0.39078599823619653,0.0,1.0,0.0,0.2,1.0,1.0, 1.0
378,0.0228,0.132,3.45,0.132,3.45,0.9204989558341942,0.0,-0.3907450221156481,0.0,1.0,0.0,0.2,1.0,1.0, 1.0
379,0.0228,0.132,3.45,0.132,3.45,0.9327448694607288,0.0,-0.36053711111990694,0.0,1.0,0.0,0.2,1.0,1.0, 1.0
380,0.0228,0.132,3.45,0.132,3.45,0.932726588434357,0.0,-0.36058440236317213,0.0,1.0,0.0,0.2,1.0,1.0, 1.0
381,0.0228,0.132,3.45,0.132,3.45,0.852054319503128,0.0,-0.5234533757805572,0.0,1.0,0.0,0.2,1.0,1.0, 1.0
382,0.0228,0.132,3.45,0.132,3.45,0.8520534762656354,0.0,-0.5234547483628801,0.0,1.0,0.0,0.2,1.0,1.0, 1.0
383,0.0228,0.132,3.45,0.132,3.45,0.672617864817254,0.0,-0.7399900052897188,0.0,1.0,0.0,0.2,1.0,1.0, 1.0
384,0.0228,0.132,3.45,0.132,3.45,0.6725691698440762,0.0,-0.7400342639197526,0.0,1.0,0.0,0.2,1.0,1.0, 1.0
385,0.0228,0.132,3.45,0.132,3.45,0.4268427822916358,0.0,-0.9043258479140885,0.0,1.0,0.0,0.2,1.0,1.0, 1.0
386,0.0228,0.132,3.45,0.132,3.45,0.4269244944416581,0.0,-0.9042872751762765,0.0,1.0,0.0,0.2,1.0,1.0, 1.0
387,0.0228,0.132,3.45,0.132,3.45,0.42236345253991,0.0,-0.9064265629153677,0.0,1.0,0.0,0.2,1.0,1.0, 1.0
388,0.0228,0.132,3.45,0.132,3.45,0.4224794689984442,0.0,-0.9063724942179086,0.0,1.0,0.0,0.2,1.0,1.0, 1.0
389,0.0228,0.132,3.45,0.132,3.45,0.42130573654039727,0.0,-0.9069186713030851,0.0,1.0,0.0,0.2,1.0,1.0, 1.0
390,0.0228,0.132,3.45,0.132,3.45,0.42139228698720266,0.0,-0.9068784595896493,0.0,1.0,0.0,0.2,1.0,1.0, 1.0
391,0.0228,0.132,3.45,0.132,3.45,0.10951396962766387,0.0,0.9939852566594694,-0.0,1.0,0.0,0.2,1.0,1.0, 1.0
392,0.0228,0.132,3.45,0.132,3.45,0.10952712567851323,0.0,0.9939838070816865,-0.0,1.0,0.0,0.2,1.0,1.0, 1.0
393,0.0228,0.132,3.45,0.132,3.45,0.3239494383564517,0.0,0.9460743952716084,-0.0,1.0,0.0,0.2,1.0,1.0, 1.0
394,0.0228,0.132,3.45,0.132,3.45,0.3239732809948789,0.0,0.9460662308746747,-0.0,1.0,0.0,0.2,1.0,1.0, 1.0
395,0.0228,0.132,3.45,0.132,3.45,0.5253345311641171,0.0,0.8508957811427774,-0.0,1.0,0.0,0.2,1.0,1.0, 1.0
396,0.0228,0.132,3.45,0.132,3.45,0.5253670419569921,0.0,0.8508757084471034,-0.0,1.0,0.0,0.2,1.0,1.0, 1.0
397,0.0228,0.132,3.45,0.132,3.45,0.7016183045430334,0.0,0.7125529838055268,-0.0,1.0,0.0,0.2,1.0,1.0, 1.0
398,0.0228,0.132,3.45,0.132,3.45,0.7016291915404496,0.0,0.712542263713736,-0.0,1.0,0.0,0.2,1.0,1.0, 1.0
399,0.0228,0.132,3.45,0.132,3.45,0.842563580241912,0.0,0.538596893093463,-0.0,1.0,0.0,0.2,1.0,1.0, 1.0
400,0.0228,0.132,3.45,0.132,3.45,0.8425699219539573,0.0,0.5385869721953012,-0.0,1.0,0.0,0.2,1.0,1.0, 1.0
401,0.0228,0.132,3.45,0.132,3.45,0.9419912876074891,0.0,0.3356373252062181,-0.0,1.0,0.0,0.2,1.0,1.0, 1.0
402,0.0228,0.132,3.45,0.132,3.45,0.9419976900788257,0.0,0.335619355648861,-0.0,1.0,0.0,0.2,1.0,1.0, 1.0
403,0.0228,0.132,3.45,0.132,3.45,0.9934895610276865,0.0,0.11392318521273313,-0.0,1.0,0.0,0.2,1.0,1.0, 1.0
404,0.0228,0.132,3.45,0.132,3.45,0.9934909446757247,0.0,0.11391111819017558,-0.0,1.0,0.0,0.2,1.0,1.0, 1.0
405,0.0228,0.132,3.45,0.132,3.45,0.9930777746886409,0.0,0.11745864557135316,-0.0,1.0,0.0,0.2,1.0,1.0, 1.0
406,0.0228,0.132,3.45,0.132,3.45,0.9930783552193558,0.0,0.11745373725352003,-0.0,1.0,0.0,0.2,1.0,1.0, 1.0
407,0.0228,0.132,3.45,0.132,3.45,0.9923578433101716,0.0,0.1233933175694088,-0.0,1.0,0.0,0.2,1.0,1.0, 1.0
408,0.0228,0.132,3.45,0.132,3.45,0.9923492836034082,0.0,0.12346213723973146,-0.0,1.0,0.0,0.2,1.0,1.0, 1.0
409,0.0228,0.132,3.45,0.132,3.45,0.9914664997171275,0.0,0.13036172727709247,-0.0,1.0,0.0,0.2,1.0,1.0, 1.0
410,0.0228,0.132,3.45,0.132,3.45,0.9914432092274051,0.0,0.13053874090423725,-0.0,1.0,0.0,0.2,1.0,1.0, 1.0
411,0.0228,0.132,3.45,0.132,3.45,0.9910312655680071,0.0,0.13363020117725619,-0.0,1.0,0.0,0.2,1.0,1.0, 1.0
412,0.0228,0.132,3.45,0.132,3.45,0.9910051208085142,0.0,0.13382395350348175,-0.0,1.0,0.0,0.2,1.0,1.0, 1.0
413,0.0228,0.132,3.45,0.132,3.45,0.9908439895085159,0.0,0.13501180857557607,-0.0,1.0,0.0,0.2,1.0,1.0, 1.0
414,0.0228,0.132,3.45,0.132,3.45,0.9908193290883992,0.0,0.13519266660886106,-0.0,1.0,0.0,0.2,1.0,1.0, 1.0
415,0.0228,0.132,3.45,0.132,3.45,0.9906524750409249,0.0,0.1364099472006697,-0.0,1.0,0.0,0.2,1.0,1.0, 1.0
416,0.0228,0.132,3.45,0.132,3.45,0.9906218159015697,0.0,0.13663241877342525,-0.0,1.0,0.0,0.2,1.0,1.0, 1.0
417,0.0228,0.132,3.45,0.132,3.45,0.9902129584046543,0.0,0.13956466962488248,-0.0,1.0,0.0,0.2,1.0,1.0, 1.0
418,0.0228,0.132,3.45,0.132,3.45,0.9901741915268725,0.0,0.13983944520093328,-0.0,1.0,0.0,0.2,1.0,1.0, 1.0
419,0.0228,0.132,3.45,0.132,3.45,0.9877052649189497,0.0,0.15632757162889435,-0.0,1.0,0.0,0.2,1.0,1.0, 1.0
420,0.0228,0.132,3.45,0.132,3.45,0.9876715755852722,0.0,0.15654027846182536,-0.0,1.0,0.0,0.2,1.0,1.0, 1.0
421,0.0228,0.132,3.45,0.132,3.45,0.9788756417155935,0.0,0.20445654319655582,-0.0,1.0,0.0,0.2,1.0,1.0, 1.0
422,0.0228,0.132,3.45,0.132,3.45,0.9788595598945771,0.0,0.20453352293204816,-0.0,1.0,0.0,0.2,1.0,1.0, 1.0
423,0.0228,0.132,3.45,0.132,3.45,0.9479756647595988,0.0,0.3183428011179093,-0.0,1.0,0.0,0.2,1.0,1.0, 1.0
424,0.0228,0.132,3.45,0.132,3.45,0.9479676834620381,0.0,0.3183665672014217,-0.0,1.0,0.0,0.2,1.0,1.0, 1.0
425,0.0228,0.132,3.45,0.132,3.45,0.726333595003245,0.0,0.6873423519394553,-0.0,1.0,0.0,0.2,1.0,1.0, 1.0
426,0.0228,0.132,3.45,0.132,3.45,0.7264195746887929,0.0,0.6872514834534396,-0.0,1.0,0.0,0.2,1.0,1.0, 1.0
427,0.0228,0.132,3.45,0.132,3.45,0.3400498986925748,0.0,0.9404073938454385,-0.0,1.0,0.0,0.2,1.0,1.0, 1.0
428,0.0228,0.132,3.45,0.132,3.45,0.34019454923317743,0.0,0.940355075847435,-0.0,1.0,0.0,0.2,1.0,1.0, 1.0
429,0.0228,0.132,3.45,0.132,3.45,0.21169129912280302,0.0,0.9773365816727111,-0.0,1.0,0.0,0.2,1.0,1.0, 1.0
430,0.0228,0.132,3.45,0.132,3.45,0.21183019774182368,0.0,0.9773064858705584,-0.0,1.0,0.0,0.2,1.0,1.0, 1.0
431,0.0228,0.132,3.45,0.132,3.45,0.1532203822011486,0.0,0.9881920433185718,-0.0,1.0,0.0,0.2,1.0,1.0, 1.0
432,0.0228,0.132,3.45,0.132,3.45,0.15344129105831597,0.0,0.9881577658442792,-0.0,1.0,0.0,0.2,1.0,1.0, 1.0
433,0.0228,0.132,3.45,0.132,3.45,0.1302231195745148,0.0,0.9914847145207442,-0.0,1.0,0.0,0.2,1.0,1.0, 1.0
434,0.0228,0.132,3.45,0.132,3.45,0.13055125780370727,0.0,0.9914415611047733,-0.0,1.0,0.0,0.2,1.0,1.0, 1.0
435,0.0228,0.132,3.45,0.132,3.45,0.1260028140536192,0.0,0.9920298840511657,-0.0,1.0,0.0,0.2,1.0,1.0, 1.0
436,0.0228,0.132,3.45,0.132,3.45,0.12630741753860947,0.0,0.9919911472763896,-0.0,1.0,0.0,0.2,1.0,1.0, 1.0
437,0.0228,0.132,3.45,0.132,3.45,0.12654377672870123,0.0,0.991961023715769,-0.0,1.0,0.0,0.2,1.0,1.0, 1.0
438,0.0228,0.132,3.45,0.132,3.45,0.12674543639418756,0.0,0.9919352773005137,-0.0,1.0,0.0,0.2,1.0,1.0, 1.0
439,0.0228,0.132,3.45,0.132,3.45,0.12626698085556942,0.0,0.9919962951269622,-0.0,1.0,0.0,0.2,1.0,1.0, 1.0
440,0.0228,0.132,3.45,0.132,3.45,0.1264263435634066,0.0,0.9919759975186837,-0.0,1.0,0.0,0.2,1.0,1.0, 1.0
441,0.0228,0.132,3.45,0.132,3.45,0.12081459495028019,0.0,0.9926750896678126,-0.0,1.0,0.0,0.2,1.0,1.0, 1.0
442,0.0228,0.132,3.45,0.132,3.45,0.1209916982143589,0.0,0.9926535190907276,-0.0,1.0,0.0,0.2,1.0,1.0, 1.0
443,0.0228,0.132,3.45,0.132,3.45,0.1088455395675525,0.0,0.9940586745842764,-0.0,1.0,0.0,0.2,1.0,1.0, 1.0
444,0.0228,0.132,3.45,0.132,3.45,0.10898866714332801,0.0,0.9940429922464725,-0.0,1.0,0.0,0.2,1.0,1.0, 1.0
445,0.0228,0.132,3.45,0.132,3.45,0.10289410694832037,0.0,0.9946923156209199,-0.0,1.0,0.0,0.2,1.0,1.0, 1.0
446,0.0228,0.132,3.45,0.132,3.45,0.1029854038305091,0.0,0.9946828673491199,-0.0,1.0,0.0,0.2,1.0,1.0, 1.0
447,0.0228,0.132,3.45,0.132,3.45,0.105662516587194,0.0,0.9944020477595874,-0.0,1.0,0.0,0.2,1.0,1.0, 1.0
448,0.0228,0.132,3.45,0.132,3.45,0.10570354873734662,0.0,0.9943976869363341,-0.0,1.0,0.0,0.2,1.0,1.0, 1.0
449,0.0228,0.132,3.45,0.132,3.45,0.9382942339082257,0.0,0.34583801210187404,-0.0,1.0,0.0,0.2,1.0,1.0, 1.0
450,0.0228,0.132,3.45,0.132,3.45,0.9382871147590333,0.0,0.3458573264760615,-0.0,1.0,0.0,0.2,1.0,1.0, 1.0
451,0.0228,0.132,3.45,0.132,3.45,0.9311193648970489,0.0,0.36471458472854634,-0.0,1.0,0.0,0.2,1.0,1.0, 1.0
452,0.0228,0.132,3.45,0.132,3.45,0.9310957401254615,0.0,0.36477489321528017,-0.0,1.0,0.0,0.2,1.0,1.0, 1.0
453,0.0228,0.132,3.45,0.132,3.45,0.923106289363745,0.0,0.38454489794703806,-0.0,1.0,0.0,0.2,1.0,1.0, 1.0
454,0.0228,0.132,3.45,0.132,3.45,0.923070888511065,0.0,0.3846298672534321,-0.0,1.0,0.0,0.2,1.0,1.0, 1.0
455,0.0228,0.132,3.45,0.132,3.45,0.9198455219102918,0.0,0.39228078696462154,-0.0,1.0,0.0,0.2,1.0,1.0, 1.0
456,0.0228,0.132,3.45,0.132,3.45,0.9198163574556169,0.0,0.39234916663232655,-0.0,1.0,0.0,0.2,1.0,1.0, 1.0
457,0.0228,0.132,3.45,0.132,3.45,0.9179891279559107,0.0,0.3966055483156363,-0.0,1.0,0.0,0.2,1.0,1.0, 1.0
458,0.0228,0.132,3.45,0.132,3.45,0.9179705394263519,0.0,0.3966485708348038,-0.0,1.0,0.0,0.2,1.0,1.0, 1.0
459,0.0228,0.132,3.45,0.132,3.45,0.9164040168307984,0.0,0.40025451644719506,-0.0,1.0,0.0,0.2,1.0,1.0, 1.0
460,0.0228,0.132,3.45,0.132,3.45,0.9163885926506483,0.0,0.40028982907359034,-0.0,1.0,0.0,0.2,1.0,1.0, 1.0
461,0.0228,0.132,3.45,0.132,3.45,0.9145463328234323,0.0,0.4044811554562361,-0.0,1.0,0.0,0.2,1.0,1.0, 1.0
462,0.0228,0.132,3.45,0.132,3.45,0.9145025852803785,0.0,0.4045800557559699,-0.0,1.0,0.0,0.2,1.0,1.0, 1.0
463,0.0228,0.132,3.45,0.132,3.45,0.9023266564053753,0.0,0.4310529029484614,-0.0,1.0,0.0,0.2,1.0,1.0, 1.0
464,0.0228,0.132,3.45,0.132,3.45,0.9023220446634111,0.0,0.43106255661381776,-0.0,1.0,0.0,0.2,1.0,1.0, 1.0
465,0.0228,0.132,3.45,0.132,3.45,0.8535054946524407,0.0,0.5210838421963326,-0.0,1.0,0.0,0.2,1.0,1.0, 1.0
466,0.0228,0.132,3.45,0.132,3.45,0.8536078607429186,0.0,0.5209161353595204,-0.0,1.0,0.0,0.2,1.0,1.0, 1.0
467,0.0228,0.132,3.45,0.132,3.45,0.7151814790592697,0.0,0.6989388041957575,-0.0,1.0,0.0,0.2,1.0,1.0, 1.0
468,0.0228,0.132,3.45,0.132,3.45,0.7152228488076446,0.0,0.6988964705473028,-0.0,1.0,0.0,0.2,1.0,1.0, 1.0
469,0.0228,0.132,3.45,0.132,3.45,0.5243755176881606,0.0,0.8514871205422156,-0.0,1.0,0.0,0.2,1.0,1.0, 1.0
470,0.0228,0.132,3.45,0.132,3.45,0.5242786371099465,0.0,0.8515467753859074,-0.0,1.0,0.0,0.2,1.0,1.0, 1.0
471,0.0228,0.132,3.45,0.132,3.45,0.4134803879034896,0.0,0.910513025068384,-0.0,1.0,0.0,0.2,1.0,1.0, 1.0
472,0.0228,0.132,3.45,0.132,3.45,0.4135099648003712,0.0,0.9104995930865624,-0.0,1.0,0.0,0.2,1.0,1.0, 1.0
473,0.0228,0.132,3.45,0.132,3.45,0.37087853739010496,0.0,0.9286813826622005,-0.0,1.0,0.0,0.2,1.0,1.0, 1.0
474,0.0228,0.132,3.45,0.132,3.45,0.3710284344547675,0.0,0.9286215056878901,-0.0,1.0,0.0,0.2,1.0,1.0, 1.0
475,0.0228,0.132,3.45,0.132,3.45,0.3640354878582586,0.0,0.9313850780315303,-0.0,1.0,0.0,0.2,1.0,1.0, 1.0
476,0.0228,0.132,3.45,0.132,3.45,0.36413161759643564,0.0,0.9313474996297587,-0.0,1.0,0.0,0.2,1.0,1.0, 1.0
477,0.0228,0.132,3.45,0.132,3.45,0.36881772080173797,0.0,0.929501742237534,-0.0,1.0,0.0,0.2,1.0,1.0, 1.0
478,0.0228,0.132,3.45,0.132,3.45,0.36882036793228284,0.0,0.929500691876179,-0.0,1.0,0.0,0.2,1.0,1.0, 1.0
479,0.0228,0.132,3.45,0.132,3.45,0.37248258730052697,0.0,0.928039181370003,-0.0,1.0,0.0,0.2,1.0,1.0, 1.0
480,0.0228,0.132,3.45,0.132,3.45,0.3724599550135808,0.0,0.9280482648608753,-0.0,1.0,0.0,0.2,1.0,1.0, 1.0
481,0.0228,0.132,3.45,0.132,3.45,0.3617140641754548,0.0,0.9322890838026986,-0.0,1.0,0.0,0.2,1.0,1.0, 1.0
482,0.0228,0.132,3.45,0.132,3.45,0.3617458116406119,0.0,0.9322767656444491,-0.0,1.0,0.0,0.2,1.0,1.0, 1.0
483,0.0228,0.132,3.45,0.132,3.45,0.3263255807630039,0.0,0.9452574333691793,-0.0,1.0,0.0,0.2,1.0,1.0, 1.0
484,0.0228,0.132,3.45,0.132,3.45,0.32638719695827045,0.0,0.94523615973032,-0.0,1.0,0.0,0.2,1.0,1.0, 1.0
485,0.0228,0.132,3.45,0.132,3.45,0.3058679255628209,0.0,0.9520739530687187,-0.0,1.0,0.0,0.2,1.0,1.0, 1.0
486,0.0228,0.132,3.45,0.132,3.45,0.3059382033731714,0.0,0.9520513724147432,-0.0,1.0,0.0,0.2,1.0,1.0, 1.0
487,0.0228,0.132,3.45,0.132,3.45,0.31344646844302054,0.0,0.949605871622853,-0.0,1.0,0.0,0.2,1.0,1.0, 1.0
488,0.0228,0.132,3.45,0.132,3.45,0.3134773056863998,0.0,0.9495956922920383,-0.0,1.0,0.0,0.2,1.0,1.0, 1.0
489,0.0228,0.132,3.45,0.132,3.45,0.8340745761351985,0.0,0.5516517030200205,-0.0,1.0,0.0,0.2,1.0,1.0, 1.0
490,0.0228,0.132,3.45,0.132,3.45,0.8340589210284776,0.0,0.5516753721644749,-0.0,1.0,0.0,0.2,1.0,1.0, 1.0
491,0.0228,0.132,3.45,0.132,3.45,0.690143189616489,0.0,0.7236728389444906,-0.0,1.0,0.0,0.2,1.0,1.0, 1.0
492,0.0228,0.132,3.45,0.132,3.45,0.6901292673893523,0.0,0.7236861158628345,-0.0,1.0,0.0,0.2,1.0,1.0, 1.0
493,0.0228,0.132,3.45,0.132,3.45,0.5805258356606192,0.0,0.8142418277947527,-0.0,1.0,0.0,0.2,1.0,1.0, 1.0
494,0.0228,0.132,3.45,0.132,3.45,0.5806254814870191,0.0,0.8141707746216191,-0.0,1.0,0.0,0.2,1.0,1.0, 1.0
495,0.0228,0.132,3.45,0.132,3.45,0.5768979318770152,0.0,0.8168162438370229,-0.0,1.0,0.0,0.2,1.0,1.0, 1.0
496,0.0228,0.132,3.45,0.132,3.45,0.5769574477182936,0.0,0.8167742059604922,-0.0,1.0,0.0,0.2,1.0,1.0, 1.0
497,0.0228,0.132,3.45,0.132,3.45,0.5852690341387914,0.0,0.8108391688110821,-0.0,1.0,0.0,0.2,1.0,1.0, 1.0
498,0.0228,0.132,3.45,0.132,3.45,0.5852545120133394,0.0,0.8108496507787544,-0.0,1.0,0.0,0.2,1.0,1.0, 1.0
499,0.0228,0.132,3.45,0.132,3.45,0.5959984684456294,0.0,0.8029855699889408,-0.0,1.0,0.0,0.2,1.0,1.0, 1.0
500,0.0228,0.132,3.45,0.132,3.45,0.5959544666679659,0.0,0.8030182274758776,-0.0,1.0,0.0,0.2,1.0,1.0, 1.0
501,0.0228,0.132,3.45,0.132,3.45,0.8095304943694109,0.0,0.5870778301775814,-0.0,1.0,0.0,0.2,1.0,1.0, 1.0
502,0.0228,0.132,3.45,0.132,3.45,0.8095400627463334,0.0,0.5870646359717665,-0.0,1.0,0.0,0.2,1.0,1.0, 1.0
503,0.0228,0.132,3.45,0.132,3.45,0.7871980411016778,0.0,0.6167002870809135,-0.0,1.0,0.0,0.2,1.0,1.0, 1.0
504,0.0228,0.132,3.45,0.132,3.45,0.7871887901450422,0.0,0.6167120954464771,-0.0,1.0,0.0,0.2,1.0,1.0, 1.0
505,0.0228,0.132,3.45,0.132,3.45,0.7829093252018128,0.0,0.6221358280247506,-0.0,1.0,0.0,0.2,1.0,1.0, 1.0
506,0.0228,0.132,3.45,0.132,3.45,0.7828957710844608,0.0,0.6221528844408483,-0.0,1.0,0.0,0.2,1.0,1.0, 1.0
507,0.0228,0.132,3.45,0.132,3.45,0.7749063091376984,0.0,0.6320761125517954,-0.0,1.0,0.0,0.2,1.0,1.0, 1.0
508,0.0228,0.132,3.45,0.132,3.45,0.7749031760691029,0.0,0.6320799535802548,-0.0,1.0,0.0,0.2,1.0,1.0, 1.0
509,0.0228,0.132,3.45,0.132,3.45,0.7694707148557312,0.0,0.6386820953959883,-0.0,1.0,0.0,0.2,1.0,1.0, 1.0
510,0.0228,0.132,3.45,0.132,3.45,0.7694794712015971,0.0,0.6386715457880604,-0.0,1.0,0.0,0.2,1.0,1.0, 1.0
511,0.0228,0.132,3.45,0.132,3.45,0.7691796540016632,0.0,0.6390325968758415,-0.0,1.0,0.0,0.2,1.0,1.0, 1.0
512,0.0228,0.132,3.45,0.132,3.45,0.7691519058100033,0.0,0.6390659948619077,-0.0,1.0,0.0,0.2,1.0,1.0, 1.0
513,0.0228,0.132,3.45,0.132,3.45,0.4969607255601988,0.0,0.8677730332585133,-0.0,1.0,0.0,0.2,1.0,1.0, 1.0
514,0.0228,0.132,3.45,0.132,3.45,0.4969906563145662,0.0,0.8677558916746211,-0.0,1.0,0.0,0.2,1.0,1.0, 1.0
515,0.0228,0.132,3.45,0.132,3.45,0.5126230738788445,0.0,0.8586137572430369,-0.0,1.0,0.0,0.2,1.0,1.0, 1.0
516,0.0228,0.132,3.45,0.132,3.45,0.5126467373283502,0.0,0.8585996288763451,-0.0,1.0,0.0,0.2,1.0,1.0, 1.0
517,0.0228,0.132,3.45,0.132,3.45,0.7654248483823076,0.0,0.6435252920273775,-0.0,1.0,0.0,0.2,1.0,1.0, 1.0
518,0.0228,0.132,3.45,0.132,3.45,0.7653575329326558,0.0,0.6436053501822672,-0.0,1.0,0.0,0.2,1.0,1.0, 1.0
519,0.0228,0.132,3.45,0.132,3.45,0.7015406896574512,0.0,0.7126293993058017,-0.0,1.0,0.0,0.2,1.0,1.0, 1.0
520,0.0228,0.132,3.45,0.132,3.45,0.7015602556243717,0.0,0.7126101372617895,-0.0,1.0,0.0,0.2,1.0,1.0, 1.0
521,0.0228,0.132,3.45,0.132,3.45,0.6064434494597856,0.0,0.7951266204871501,-0.0,1.0,0.0,0.2,1.0,1.0, 1.0
522,0.0228,0.132,3.45,0.132,3.45,0.6065092034875799,0.0,0.795076465558415,-0.0,1.0,0.0,0.2,1.0,1.0, 1.0
523,0.0228,0.132,3.45,0.132,3.45,0.6588685924589188,0.0,0.7522580527127664,-0.0,1.0,0.0,0.2,1.0,1.0, 1.0
524,0.0228,0.132,3.45,0.132,3.45,0.6588674080695177,0.0,0.7522590900638924,-0.0,1.0,0.0,0.2,1.0,1.0, 1.0
525,0.0228,0.132,3.45,0.132,3.45,0.5363110705758386,0.0,0.8440203999772741,-0.0,1.0,0.0,0.2,1.0,1.0, 1.0
526,0.0228,0.132,3.45,0.132,3.45,0.5362996385972975,0.0,0.8440276640255391,-0.0,1.0,0.0,0.2,1.0,1.0, 1.0
527,0.0228,0.132,3.45,0.132,3.45,0.5926603707512348,0.0,0.805452472180084,-0.0,1.0,0.0,0.2,1.0,1.0, 1.0
528,0.0228,0.132,3.45,0.132,3.45,0.5926540110685569,0.0,0.8054571516625516,-0.0,1.0,0.0,0.2,1.0,1.0, 1.0
