e_no,c,k1,k2,k3,k4,ax,ay,az,bx,by,bz,pvol,m_g,m_c
1,0.0228,0.132,3.45,0.132,3.45,0.02347662686111992,0.0,0.9997243860140772,-0.0,1.0,0.0,1.0,1.0,1.0, 1.0
2,0.0228,0.132,3.45,0.132,3.45,0.07058666120590806,0.0,0.9975056507407878,-0.0,1.0,0.0,1.0,1.0,1.0, 1.0
3,0.0228,0.132,3.45,0.132,3.45,0.11801267583852902,0.0,0.9930120887186773,-0.0,1.0,0.0,1.0,1.0,1.0, 1.0
4,0.0228,0.132,3.45,0.132,3.45,0.16574316219850174,0.0,0.9861689531639298,-0.0,1.0,0.0,1.0,1.0,1.0, 1.0
5,0.0228,0.132,3.45,0.132,3.45,0.21360313058872918,0.0,0.976920520105241,-0.0,1.0,0.0,1.0,1.0,1.0, 1.0
6,0.0228,0.132,3.45,0.132,3.45,0.26134578418355303,0.0,0.9652452440128797,-0.0,1.0,0.0,1.0,1.0,1.0, 1.0
7,0.0228,0.132,3.45,0.132,3.45,0.308699684802375,0.0,0.9511595579096676,-0.0,1.0,0.0,1.0,1.0,1.0, 1.0
8,0.0228,0.132,3.45,0.132,3.45,0.35537459283544537,0.0,0.9347239692909568,-0.0,1.0,0.0,1.0,1.0,1.0, 1.0
9,0.0228,0.132,3.45,0.132,3.45,0.4010913809262049,0.0,0.9160380473248422,-0.0,1.0,0.0,1.0,1.0,1.0, 1.0
10,0.0228,0.132,3.45,0.132,3.45,0.4455662915436204,0.0,0.895248948527763,-0.0,1.0,0.0,1.0,1.0,1.0, 1.0
11,0.0228,0.132,3.45,0.132,3.45,0.48853007601357035,0.0,0.8725470559403518,-0.0,1.0,0.0,1.0,1.0,1.0, 1.0
12,0.0228,0.132,3.45,0.132,3.45,0.5297299937523321,0.0,0.8481663361152423,-0.0,1.0,0.0,1.0,1.0,1.0, 1.0
13,0.0228,0.132,3.45,0.132,3.45,0.5688977698964754,0.0,0.8224082486252292,-0.0,1.0,0.0,1.0,1.0,1.0, 1.0
14,0.0228,0.132,3.45,0.132,3.45,0.6057719247045812,0.0,0.7956383445006324,-0.0,1.0,0.0,1.0,1.0,1.0, 1.0
15,0.0228,0.132,3.45,0.132,3.45,0.6399745152767271,0.0,0.7683961346833533,-0.0,1.0,0.0,1.0,1.0,1.0, 1.0
16,0.0228,0.132,3.45,0.132,3.45,0.6706448530602274,0.0,0.7417785930207382,-0.0,1.0,0.0,1.0,1.0,1.0, 1.0
17,0.0228,0.132,3.45,0.132,3.45,0.6960617255977394,0.0,0.7179819455654142,-0.0,1.0,0.0,1.0,1.0,1.0, 1.0
18,0.0228,0.132,3.45,0.132,3.45,0.02279326925124831,0.0,0.9997401996903196,-0.0,1.0,0.0,1.0,1.0,1.0, 1.0
19,0.0228,0.132,3.45,0.132,3.45,0.06856033334164323,0.0,0.9976469719755996,-0.0,1.0,0.0,1.0,1.0,1.0, 1.0
20,0.0228,0.132,3.45,0.132,3.45,0.11469177770413931,0.0,0.9934011254911402,-0.0,1.0,0.0,1.0,1.0,1.0, 1.0
21,0.0228,0.132,3.45,0.132,3.45,0.1611938943465384,0.0,0.9869227570713915,-0.0,1.0,0.0,1.0,1.0,1.0, 1.0
22,0.0228,0.132,3.45,0.132,3.45,0.20791625199684993,0.0,0.9781466312141459,-0.0,1.0,0.0,1.0,1.0,1.0, 1.0
23,0.0228,0.132,3.45,0.132,3.45,0.25463186116921305,0.0,0.9670380629931289,-0.0,1.0,0.0,1.0,1.0,1.0, 1.0
24,0.0228,0.132,3.45,0.132,3.45,0.30108637143960365,0.0,0.9535968733869323,-0.0,1.0,0.0,1.0,1.0,1.0, 1.0
25,0.0228,0.132,3.45,0.132,3.45,0.34701295410699545,0.0,0.9378603359146479,-0.0,1.0,0.0,1.0,1.0,1.0, 1.0
26,0.0228,0.132,3.45,0.132,3.45,0.39214358526006593,0.0,0.919904021373633,-0.0,1.0,0.0,1.0,1.0,1.0, 1.0
27,0.0228,0.132,3.45,0.132,3.45,0.43619980250378687,0.0,0.8998498387484756,-0.0,1.0,0.0,1.0,1.0,1.0, 1.0
28,0.0228,0.132,3.45,0.132,3.45,0.4789150403836444,0.0,0.877861255606108,-0.0,1.0,0.0,1.0,1.0,1.0, 1.0
29,0.0228,0.132,3.45,0.132,3.45,0.5200455538608127,0.0,0.8541385261827268,-0.0,1.0,0.0,1.0,1.0,1.0, 1.0
30,0.0228,0.132,3.45,0.132,3.45,0.5593528094322423,0.0,0.8289296921815852,-0.0,1.0,0.0,1.0,1.0,1.0, 1.0
31,0.0228,0.132,3.45,0.132,3.45,0.5965920157079552,0.0,0.8025446821165281,-0.0,1.0,0.0,1.0,1.0,1.0, 1.0
32,0.0228,0.132,3.45,0.132,3.45,0.6315293146312491,0.0,0.7753520005529003,-0.0,1.0,0.0,1.0,1.0,1.0, 1.0
33,0.0228,0.132,3.45,0.132,3.45,0.6638532446338247,0.0,0.7478628681711263,-0.0,1.0,0.0,1.0,1.0,1.0, 1.0
34,0.0228,0.132,3.45,0.132,3.45,0.6932750407441183,0.0,0.7206731005672691,-0.0,1.0,0.0,1.0,1.0,1.0, 1.0
35,0.0228,0.132,3.45,0.132,3.45,0.02249227613027822,0.0,0.999747016756979,-0.0,1.0,0.0,1.0,1.0,1.0, 1.0
36,0.0228,0.132,3.45,0.132,3.45,0.067662651271715,0.0,0.9977082567679203,-0.0,1.0,0.0,1.0,1.0,1.0, 1.0
37,0.0228,0.132,3.45,0.132,3.45,0.1132047101734948,0.0,0.993571685181565,-0.0,1.0,0.0,1.0,1.0,1.0, 1.0
38,0.0228,0.132,3.45,0.132,3.45,0.1591283607240728,0.0,0.9872579018743125,-0.0,1.0,0.0,1.0,1.0,1.0, 1.0
39,0.0228,0.132,3.45,0.132,3.45,0.20529900836774975,0.0,0.9786992986424474,-0.0,1.0,0.0,1.0,1.0,1.0, 1.0
40,0.0228,0.132,3.45,0.132,3.45,0.25150302155915477,0.0,0.9678565132015259,-0.0,1.0,0.0,1.0,1.0,1.0, 1.0
41,0.0228,0.132,3.45,0.132,3.45,0.2974974654168093,0.0,0.9547226079184332,-0.0,1.0,0.0,1.0,1.0,1.0, 1.0
42,0.0228,0.132,3.45,0.132,3.45,0.3430306170500328,0.0,0.939324222921071,-0.0,1.0,0.0,1.0,1.0,1.0, 1.0
43,0.0228,0.132,3.45,0.132,3.45,0.3878410615210264,0.0,0.921726266848376,-0.0,1.0,0.0,1.0,1.0,1.0, 1.0
44,0.0228,0.132,3.45,0.132,3.45,0.4316704269463609,0.0,0.9020313977351047,-0.0,1.0,0.0,1.0,1.0,1.0, 1.0
45,0.0228,0.132,3.45,0.132,3.45,0.47426263276896546,0.0,0.8803834137232763,-0.0,1.0,0.0,1.0,1.0,1.0, 1.0
46,0.0228,0.132,3.45,0.132,3.45,0.5153768187034659,0.0,0.8569636717755863,-0.0,1.0,0.0,1.0,1.0,1.0, 1.0
47,0.0228,0.132,3.45,0.132,3.45,0.5547991389827651,0.0,0.8319843240013495,-0.0,1.0,0.0,1.0,1.0,1.0, 1.0
48,0.0228,0.132,3.45,0.132,3.45,0.5923141218234526,0.0,0.8057071310895244,-0.0,1.0,0.0,1.0,1.0,1.0, 1.0
49,0.0228,0.132,3.45,0.132,3.45,0.6277468840421432,0.0,0.7784175290776667,-0.0,1.0,0.0,1.0,1.0,1.0, 1.0
50,0.0228,0.132,3.45,0.132,3.45,0.6610201630969371,0.0,0.7503681389686656,-0.0,1.0,0.0,1.0,1.0,1.0, 1.0
51,0.0228,0.132,3.45,0.132,3.45,0.6921897502704744,0.0,0.7217155600515335,-0.0,1.0,0.0,1.0,1.0,1.0, 1.0
52,0.0228,0.132,3.45,0.132,3.45,0.022372910394321713,0.0,0.9997496951139758,-0.0,1.0,0.0,1.0,1.0,1.0, 1.0
53,0.0228,0.132,3.45,0.132,3.45,0.06729925636617753,0.0,0.9977328350277742,-0.0,1.0,0.0,1.0,1.0,1.0, 1.0
54,0.0228,0.132,3.45,0.132,3.45,0.11258445358283893,0.0,0.9936421593367772,-0.0,1.0,0.0,1.0,1.0,1.0, 1.0
55,0.0228,0.132,3.45,0.132,3.45,0.15823718137260945,0.0,0.9874011314715272,-0.0,1.0,0.0,1.0,1.0,1.0, 1.0
56,0.0228,0.132,3.45,0.132,3.45,0.20413008054951773,0.0,0.9789437727545169,-0.0,1.0,0.0,1.0,1.0,1.0, 1.0
57,0.0228,0.132,3.45,0.132,3.45,0.2500619491163365,0.0,0.9682298392448658,-0.0,1.0,0.0,1.0,1.0,1.0, 1.0
58,0.0228,0.132,3.45,0.132,3.45,0.29580238914013357,0.0,0.9552491541890991,-0.0,1.0,0.0,1.0,1.0,1.0, 1.0
59,0.0228,0.132,3.45,0.132,3.45,0.34110975449767805,0.0,0.9400234759762831,-0.0,1.0,0.0,1.0,1.0,1.0, 1.0
60,0.0228,0.132,3.45,0.132,3.45,0.3857293176132384,0.0,0.9226119951169209,-0.0,1.0,0.0,1.0,1.0,1.0, 1.0
61,0.0228,0.132,3.45,0.132,3.45,0.4294185395235449,0.0,0.9031055962142331,-0.0,1.0,0.0,1.0,1.0,1.0, 1.0
62,0.0228,0.132,3.45,0.132,3.45,0.4719365557798146,0.0,0.8816325126256891,-0.0,1.0,0.0,1.0,1.0,1.0, 1.0
63,0.0228,0.132,3.45,0.132,3.45,0.5130480431319101,0.0,0.8583598927247927,-0.0,1.0,0.0,1.0,1.0,1.0, 1.0
64,0.0228,0.132,3.45,0.132,3.45,0.5525579057888552,0.0,0.8334745111581007,-0.0,1.0,0.0,1.0,1.0,1.0, 1.0
65,0.0228,0.132,3.45,0.132,3.45,0.5902715605246631,0.0,0.8072047353898384,-0.0,1.0,0.0,1.0,1.0,1.0, 1.0
66,0.0228,0.132,3.45,0.132,3.45,0.626037370020864,0.0,0.7797930567383631,-0.0,1.0,0.0,1.0,1.0,1.0, 1.0
67,0.0228,0.132,3.45,0.132,3.45,0.6598215308103884,0.0,0.7514223496004332,-0.0,1.0,0.0,1.0,1.0,1.0, 1.0
68,0.0228,0.132,3.45,0.132,3.45,0.6917490426899001,0.0,0.7221379798470697,-0.0,1.0,0.0,1.0,1.0,1.0, 1.0
69,0.0228,0.132,3.45,0.132,3.45,0.02233015053877565,0.0,0.9997506511010211,-0.0,1.0,0.0,1.0,1.0,1.0, 1.0
70,0.0228,0.132,3.45,0.132,3.45,0.06716240458428632,0.0,0.9977420565509187,-0.0,1.0,0.0,1.0,1.0,1.0, 1.0
71,0.0228,0.132,3.45,0.132,3.45,0.11233177699476608,0.0,0.9936707562755371,-0.0,1.0,0.0,1.0,1.0,1.0, 1.0
72,0.0228,0.132,3.45,0.132,3.45,0.1578436141045003,0.0,0.9874641226325286,-0.0,1.0,0.0,1.0,1.0,1.0, 1.0
73,0.0228,0.132,3.45,0.132,3.45,0.20357404160477693,0.0,0.9790595536455873,-0.0,1.0,0.0,1.0,1.0,1.0, 1.0
74,0.0228,0.132,3.45,0.132,3.45,0.24933145009498298,0.0,0.9684182092430589,-0.0,1.0,0.0,1.0,1.0,1.0, 1.0
75,0.0228,0.132,3.45,0.132,3.45,0.29489691962089215,0.0,0.9555290716655926,-0.0,1.0,0.0,1.0,1.0,1.0, 1.0
76,0.0228,0.132,3.45,0.132,3.45,0.3400386154833198,0.0,0.940411473760389,-0.0,1.0,0.0,1.0,1.0,1.0, 1.0
77,0.0228,0.132,3.45,0.132,3.45,0.38451589688138244,0.0,0.9231183700076095,-0.0,1.0,0.0,1.0,1.0,1.0, 1.0
78,0.0228,0.132,3.45,0.132,3.45,0.4280956003211278,0.0,0.9037334546124167,-0.0,1.0,0.0,1.0,1.0,1.0, 1.0
79,0.0228,0.132,3.45,0.132,3.45,0.4705478083894017,0.0,0.8823745010027948,-0.0,1.0,0.0,1.0,1.0,1.0, 1.0
80,0.0228,0.132,3.45,0.132,3.45,0.5116519885900972,0.0,0.859192785451437,-0.0,1.0,0.0,1.0,1.0,1.0, 1.0
81,0.0228,0.132,3.45,0.132,3.45,0.551218534810348,0.0,0.83436090924823,-0.0,1.0,0.0,1.0,1.0,1.0, 1.0
82,0.0228,0.132,3.45,0.132,3.45,0.5890664959212547,0.0,0.808084564499938,-0.0,1.0,0.0,1.0,1.0,1.0, 1.0
83,0.0228,0.132,3.45,0.132,3.45,0.6250667719596692,0.0,0.7805712847600269,-0.0,1.0,0.0,1.0,1.0,1.0, 1.0
84,0.0228,0.132,3.45,0.132,3.45,0.6591878646322993,0.0,0.7519782969750587,-0.0,1.0,0.0,1.0,1.0,1.0, 1.0
85,0.0228,0.132,3.45,0.132,3.45,0.6915268741001843,0.0,0.7223507336448326,-0.0,1.0,0.0,1.0,1.0,1.0, 1.0
86,0.0228,0.132,3.45,0.132,3.45,0.022324495391816548,0.0,0.9997507773967974,-0.0,1.0,0.0,1.0,1.0,1.0, 1.0
87,0.0228,0.132,3.45,0.132,3.45,0.0671368356745408,0.0,0.9977437773775437,-0.0,1.0,0.0,1.0,1.0,1.0, 1.0
88,0.0228,0.132,3.45,0.132,3.45,0.1122614605754775,0.0,0.9936787028358112,-0.0,1.0,0.0,1.0,1.0,1.0, 1.0
89,0.0228,0.132,3.45,0.132,3.45,0.1576962400132527,0.0,0.9874876687258848,-0.0,1.0,0.0,1.0,1.0,1.0, 1.0
90,0.0228,0.132,3.45,0.132,3.45,0.2033209203781687,0.0,0.9791121505407716,-0.0,1.0,0.0,1.0,1.0,1.0, 1.0
91,0.0228,0.132,3.45,0.132,3.45,0.24895187602982363,0.0,0.9685158560504993,-0.0,1.0,0.0,1.0,1.0,1.0, 1.0
92,0.0228,0.132,3.45,0.132,3.45,0.2943797751381605,0.0,0.9556885203818272,-0.0,1.0,0.0,1.0,1.0,1.0, 1.0
93,0.0228,0.132,3.45,0.132,3.45,0.33938288730293176,0.0,0.9406483167507,-0.0,1.0,0.0,1.0,1.0,1.0, 1.0
94,0.0228,0.132,3.45,0.132,3.45,0.3837356700436563,0.0,0.9234429790388502,-0.0,1.0,0.0,1.0,1.0,1.0, 1.0
95,0.0228,0.132,3.45,0.132,3.45,0.42721664458901615,0.0,0.9041492899881647,-0.0,1.0,0.0,1.0,1.0,1.0, 1.0
96,0.0228,0.132,3.45,0.132,3.45,0.46960530217934615,0.0,0.8828764693687587,-0.0,1.0,0.0,1.0,1.0,1.0, 1.0
97,0.0228,0.132,3.45,0.132,3.45,0.5106908751462115,0.0,0.8597644038004809,-0.0,1.0,0.0,1.0,1.0,1.0, 1.0
98,0.0228,0.132,3.45,0.132,3.45,0.5502874902839855,0.0,0.8349752559429247,-0.0,1.0,0.0,1.0,1.0,1.0, 1.0
99,0.0228,0.132,3.45,0.132,3.45,0.5882287350762435,0.0,0.8086945994815364,-0.0,1.0,0.0,1.0,1.0,1.0, 1.0
100,0.0228,0.132,3.45,0.132,3.45,0.6243978601735596,0.0,0.7811064666296649,-0.0,1.0,0.0,1.0,1.0,1.0, 1.0
101,0.0228,0.132,3.45,0.132,3.45,0.6587541587451915,0.0,0.7523582646159441,-0.0,1.0,0.0,1.0,1.0,1.0, 1.0
102,0.0228,0.132,3.45,0.132,3.45,0.6913770162285152,0.0,0.7224941670567006,-0.0,1.0,0.0,1.0,1.0,1.0, 1.0
103,0.0228,0.132,3.45,0.132,3.45,0.022340291141704386,0.0,0.9997504245518999,-0.0,1.0,0.0,1.0,1.0,1.0, 1.0
104,0.0228,0.132,3.45,0.132,3.45,0.0671756053951828,0.0,0.9977411678585738,-0.0,1.0,0.0,1.0,1.0,1.0, 1.0
105,0.0228,0.132,3.45,0.132,3.45,0.11229600420928607,0.0,0.9936747996395139,-0.0,1.0,0.0,1.0,1.0,1.0, 1.0
106,0.0228,0.132,3.45,0.132,3.45,0.1576923912309039,0.0,0.9874882833471391,-0.0,1.0,0.0,1.0,1.0,1.0, 1.0
107,0.0228,0.132,3.45,0.132,3.45,0.203243387377103,0.0,0.9791282477221669,-0.0,1.0,0.0,1.0,1.0,1.0, 1.0
108,0.0228,0.132,3.45,0.132,3.45,0.2487744179153563,0.0,0.9685614533889296,-0.0,1.0,0.0,1.0,1.0,1.0, 1.0
109,0.0228,0.132,3.45,0.132,3.45,0.2940885722385039,0.0,0.9557781707481702,-0.0,1.0,0.0,1.0,1.0,1.0, 1.0
110,0.0228,0.132,3.45,0.132,3.45,0.33897245025142786,0.0,0.9407962999345518,-0.0,1.0,0.0,1.0,1.0,1.0, 1.0
111,0.0228,0.132,3.45,0.132,3.45,0.3832094001361258,0.0,0.9236614940806565,-0.0,1.0,0.0,1.0,1.0,1.0, 1.0
112,0.0228,0.132,3.45,0.132,3.45,0.4265927263321969,0.0,0.9044438323303794,-0.0,1.0,0.0,1.0,1.0,1.0, 1.0
113,0.0228,0.132,3.45,0.132,3.45,0.4689100322588168,0.0,0.8832459349733999,-0.0,1.0,0.0,1.0,1.0,1.0, 1.0
114,0.0228,0.132,3.45,0.132,3.45,0.5099604021781429,0.0,0.8601978773574758,-0.0,1.0,0.0,1.0,1.0,1.0, 1.0
115,0.0228,0.132,3.45,0.132,3.45,0.549574885174022,0.0,0.8354444599050022,-0.0,1.0,0.0,1.0,1.0,1.0, 1.0
116,0.0228,0.132,3.45,0.132,3.45,0.5875877563677839,0.0,0.8091604467388862,-0.0,1.0,0.0,1.0,1.0,1.0, 1.0
117,0.0228,0.132,3.45,0.132,3.45,0.6238844795776599,0.0,0.7815165744513115,-0.0,1.0,0.0,1.0,1.0,1.0, 1.0
118,0.0228,0.132,3.45,0.132,3.45,0.6584225223828833,0.0,0.7526485116034983,-0.0,1.0,0.0,1.0,1.0,1.0, 1.0
119,0.0228,0.132,3.45,0.132,3.45,0.6912644284804373,0.0,0.7226018889524259,-0.0,1.0,0.0,1.0,1.0,1.0, 1.0
120,0.0228,0.132,3.45,0.132,3.45,0.022370026190576216,0.0,0.9997497596540011,-0.0,1.0,0.0,1.0,1.0,1.0, 1.0
121,0.0228,0.132,3.45,0.132,3.45,0.06725694055781306,0.0,0.9977356884199355,-0.0,1.0,0.0,1.0,1.0,1.0, 1.0
122,0.0228,0.132,3.45,0.132,3.45,0.11239874017099596,0.0,0.9936631839853849,-0.0,1.0,0.0,1.0,1.0,1.0, 1.0
123,0.0228,0.132,3.45,0.132,3.45,0.15777748586407966,0.0,0.9874746907918248,-0.0,1.0,0.0,1.0,1.0,1.0, 1.0
124,0.0228,0.132,3.45,0.132,3.45,0.20327490636082923,0.0,0.9791217046128616,-0.0,1.0,0.0,1.0,1.0,1.0, 1.0
125,0.0228,0.132,3.45,0.132,3.45,0.24872389719602275,0.0,0.9685744282003436,-0.0,1.0,0.0,1.0,1.0,1.0, 1.0
126,0.0228,0.132,3.45,0.132,3.45,0.29393595317061344,0.0,0.9558251175992828,-0.0,1.0,0.0,1.0,1.0,1.0, 1.0
127,0.0228,0.132,3.45,0.132,3.45,0.3387070634316484,0.0,0.9408918775191492,-0.0,1.0,0.0,1.0,1.0,1.0, 1.0
128,0.0228,0.132,3.45,0.132,3.45,0.3828328391066004,0.0,0.9238176320581784,-0.0,1.0,0.0,1.0,1.0,1.0, 1.0
129,0.0228,0.132,3.45,0.132,3.45,0.42611656892231553,0.0,0.9046682649954476,-0.0,1.0,0.0,1.0,1.0,1.0, 1.0
130,0.0228,0.132,3.45,0.132,3.45,0.4683575988692769,0.0,0.883538997204654,-0.0,1.0,0.0,1.0,1.0,1.0, 1.0
131,0.0228,0.132,3.45,0.132,3.45,0.5093722450153095,0.0,0.8605462892884168,-0.0,1.0,0.0,1.0,1.0,1.0, 1.0
132,0.0228,0.132,3.45,0.132,3.45,0.5489888013678438,0.0,0.8358297051270063,-0.0,1.0,0.0,1.0,1.0,1.0, 1.0
133,0.0228,0.132,3.45,0.132,3.45,0.5870484810581781,0.0,0.8095517777679733,-0.0,1.0,0.0,1.0,1.0,1.0, 1.0
134,0.0228,0.132,3.45,0.132,3.45,0.6234551173473157,0.0,0.781859141184296,-0.0,1.0,0.0,1.0,1.0,1.0, 1.0
135,0.0228,0.132,3.45,0.132,3.45,0.6581486242030933,0.0,0.7528880318211836,-0.0,1.0,0.0,1.0,1.0,1.0, 1.0
136,0.0228,0.132,3.45,0.132,3.45,0.691171442097038,0.0,0.722690831289218,-0.0,1.0,0.0,1.0,1.0,1.0, 1.0
137,0.0228,0.132,3.45,0.132,3.45,0.022409159392363105,0.0,0.9997488832578548,-0.0,1.0,0.0,1.0,1.0,1.0, 1.0
138,0.0228,0.132,3.45,0.132,3.45,0.06736690589886901,0.0,0.9977282696153362,-0.0,1.0,0.0,1.0,1.0,1.0, 1.0
139,0.0228,0.132,3.45,0.132,3.45,0.11254894565380329,0.0,0.9936461819139734,-0.0,1.0,0.0,1.0,1.0,1.0, 1.0
140,0.0228,0.132,3.45,0.132,3.45,0.15792424550055337,0.0,0.987451230533985,-0.0,1.0,0.0,1.0,1.0,1.0, 1.0
141,0.0228,0.132,3.45,0.132,3.45,0.2033799613867789,0.0,0.9790998883190174,-0.0,1.0,0.0,1.0,1.0,1.0, 1.0
142,0.0228,0.132,3.45,0.132,3.45,0.24875503217353118,0.0,0.9685664323980805,-0.0,1.0,0.0,1.0,1.0,1.0, 1.0
143,0.0228,0.132,3.45,0.132,3.45,0.29386949615613495,0.0,0.9558455519742399,-0.0,1.0,0.0,1.0,1.0,1.0, 1.0
144,0.0228,0.132,3.45,0.132,3.45,0.3385319954428386,0.0,0.9409548809913736,-0.0,1.0,0.0,1.0,1.0,1.0, 1.0
145,0.0228,0.132,3.45,0.132,3.45,0.38254999386735916,0.0,0.9239347932576647,-0.0,1.0,0.0,1.0,1.0,1.0, 1.0
146,0.0228,0.132,3.45,0.132,3.45,0.4257350472859447,0.0,0.9048478709221979,-0.0,1.0,0.0,1.0,1.0,1.0, 1.0
147,0.0228,0.132,3.45,0.132,3.45,0.46789993126894314,0.0,0.8837814516714628,-0.0,1.0,0.0,1.0,1.0,1.0, 1.0
148,0.0228,0.132,3.45,0.132,3.45,0.5088733893666947,0.0,0.8608413753964502,-0.0,1.0,0.0,1.0,1.0,1.0, 1.0
149,0.0228,0.132,3.45,0.132,3.45,0.5484822231541017,0.0,0.8361622156519238,-0.0,1.0,0.0,1.0,1.0,1.0, 1.0
150,0.0228,0.132,3.45,0.132,3.45,0.5865830524649883,0.0,0.8098890804059878,-0.0,1.0,0.0,1.0,1.0,1.0, 1.0
151,0.0228,0.132,3.45,0.132,3.45,0.6230834361008503,0.0,0.7821553756490828,-0.0,1.0,0.0,1.0,1.0,1.0, 1.0
152,0.0228,0.132,3.45,0.132,3.45,0.6579060508305083,0.0,0.7531000121369036,-0.0,1.0,0.0,1.0,1.0,1.0, 1.0
153,0.0228,0.132,3.45,0.132,3.45,0.6910876512303593,0.0,0.7227709584072297,-0.0,1.0,0.0,1.0,1.0,1.0, 1.0
154,0.0228,0.132,3.45,0.132,3.45,0.022455547144954426,0.0,0.9997478424094852,-0.0,1.0,0.0,1.0,1.0,1.0, 1.0
155,0.0228,0.132,3.45,0.132,3.45,0.06749738506501375,0.0,0.9977194510529426,-0.0,1.0,0.0,1.0,1.0,1.0, 1.0
156,0.0228,0.132,3.45,0.132,3.45,0.11273210232885807,0.0,0.9936254189102228,-0.0,1.0,0.0,1.0,1.0,1.0, 1.0
157,0.0228,0.132,3.45,0.132,3.45,0.15811773995301356,0.0,0.9874202652934317,-0.0,1.0,0.0,1.0,1.0,1.0, 1.0
158,0.0228,0.132,3.45,0.132,3.45,0.20354059529742297,0.0,0.9790665074784095,-0.0,1.0,0.0,1.0,1.0,1.0, 1.0
159,0.0228,0.132,3.45,0.132,3.45,0.24884772969444083,0.0,0.9685426203456009,-0.0,1.0,0.0,1.0,1.0,1.0, 1.0
160,0.0228,0.132,3.45,0.132,3.45,0.2938707738397738,0.0,0.9558451591564465,-0.0,1.0,0.0,1.0,1.0,1.0, 1.0
161,0.0228,0.132,3.45,0.132,3.45,0.3384264107501633,0.0,0.9409928610285848,-0.0,1.0,0.0,1.0,1.0,1.0, 1.0
162,0.0228,0.132,3.45,0.132,3.45,0.3823344625812747,0.0,0.9240240033260435,-0.0,1.0,0.0,1.0,1.0,1.0, 1.0
163,0.0228,0.132,3.45,0.132,3.45,0.42542371332475415,0.0,0.9049942895626345,-0.0,1.0,0.0,1.0,1.0,1.0, 1.0
164,0.0228,0.132,3.45,0.132,3.45,0.4675092931626258,0.0,0.8839881564854712,-0.0,1.0,0.0,1.0,1.0,1.0, 1.0
165,0.0228,0.132,3.45,0.132,3.45,0.508429518096856,0.0,0.8611036088228866,-0.0,1.0,0.0,1.0,1.0,1.0, 1.0
166,0.0228,0.132,3.45,0.132,3.45,0.5480237253802294,0.0,0.8364627884253877,-0.0,1.0,0.0,1.0,1.0,1.0, 1.0
167,0.0228,0.132,3.45,0.132,3.45,0.5861607540004428,0.0,0.8101947731685465,-0.0,1.0,0.0,1.0,1.0,1.0, 1.0
168,0.0228,0.132,3.45,0.132,3.45,0.6227409215040148,0.0,0.7824281083168795,-0.0,1.0,0.0,1.0,1.0,1.0, 1.0
169,0.0228,0.132,3.45,0.132,3.45,0.6576824234817733,0.0,0.7532953138332545,-0.0,1.0,0.0,1.0,1.0,1.0, 1.0
170,0.0228,0.132,3.45,0.132,3.45,0.6910121945776418,0.0,0.7228430998114259,-0.0,1.0,0.0,1.0,1.0,1.0, 1.0
171,0.0228,0.132,3.45,0.132,3.45,0.022508314227835037,0.0,0.9997466558036696,-0.0,1.0,0.0,1.0,1.0,1.0, 1.0
172,0.0228,0.132,3.45,0.132,3.45,0.06764641352961774,0.0,0.9977093578475547,-0.0,1.0,0.0,1.0,1.0,1.0, 1.0
173,0.0228,0.132,3.45,0.132,3.45,0.11294346118308571,0.0,0.9936014163516399,-0.0,1.0,0.0,1.0,1.0,1.0, 1.0
174,0.0228,0.132,3.45,0.132,3.45,0.158346642042855,0.0,0.9873835834941515,-0.0,1.0,0.0,1.0,1.0,1.0, 1.0
175,0.0228,0.132,3.45,0.132,3.45,0.20374563463263004,0.0,0.9790238589371287,-0.0,1.0,0.0,1.0,1.0,1.0, 1.0
176,0.0228,0.132,3.45,0.132,3.45,0.24899220533818328,0.0,0.968505488720032,-0.0,1.0,0.0,1.0,1.0,1.0, 1.0
177,0.0228,0.132,3.45,0.132,3.45,0.29392344307296797,0.0,0.9558289646229245,-0.0,1.0,0.0,1.0,1.0,1.0, 1.0
178,0.0228,0.132,3.45,0.132,3.45,0.33837407764678906,0.0,0.9410116808927956,-0.0,1.0,0.0,1.0,1.0,1.0, 1.0
179,0.0228,0.132,3.45,0.132,3.45,0.38217661180282736,0.0,0.9240893016321048,-0.0,1.0,0.0,1.0,1.0,1.0, 1.0
180,0.0228,0.132,3.45,0.132,3.45,0.4251664164919659,0.0,0.9051151961421156,-0.0,1.0,0.0,1.0,1.0,1.0, 1.0
181,0.0228,0.132,3.45,0.132,3.45,0.46716855579942945,0.0,0.8841682761060109,-0.0,1.0,0.0,1.0,1.0,1.0, 1.0
182,0.0228,0.132,3.45,0.132,3.45,0.5080289495387867,0.0,0.8613399946771987,-0.0,1.0,0.0,1.0,1.0,1.0, 1.0
183,0.0228,0.132,3.45,0.132,3.45,0.5476086646544739,0.0,0.8367345758335458,-0.0,1.0,0.0,1.0,1.0,1.0, 1.0
184,0.0228,0.132,3.45,0.132,3.45,0.5857731650234218,0.0,0.810475045352072,-0.0,1.0,0.0,1.0,1.0,1.0, 1.0
185,0.0228,0.132,3.45,0.132,3.45,0.6224135336855269,0.0,0.7826885671102494,-0.0,1.0,0.0,1.0,1.0,1.0, 1.0
186,0.0228,0.132,3.45,0.132,3.45,0.6574686561911823,0.0,0.7534818950221439,-0.0,1.0,0.0,1.0,1.0,1.0, 1.0
187,0.0228,0.132,3.45,0.132,3.45,0.6909409643705254,0.0,0.7229111866299541,-0.0,1.0,0.0,1.0,1.0,1.0, 1.0
188,0.0228,0.132,3.45,0.132,3.45,0.022566864596557237,0.0,0.9997453358842345,-0.0,1.0,0.0,1.0,1.0,1.0, 1.0
189,0.0228,0.132,3.45,0.132,3.45,0.06781230566569087,0.0,0.9976980962196446,-0.0,1.0,0.0,1.0,1.0,1.0, 1.0
190,0.0228,0.132,3.45,0.132,3.45,0.11318199018957774,0.0,0.9935742735682755,-0.0,1.0,0.0,1.0,1.0,1.0, 1.0
191,0.0228,0.132,3.45,0.132,3.45,0.1586110164288606,0.0,0.987341149485528,-0.0,1.0,0.0,1.0,1.0,1.0, 1.0
192,0.0228,0.132,3.45,0.132,3.45,0.20399110989142943,0.0,0.9789727407263508,-0.0,1.0,0.0,1.0,1.0,1.0, 1.0
193,0.0228,0.132,3.45,0.132,3.45,0.24918066693996016,0.0,0.9684570177469708,-0.0,1.0,0.0,1.0,1.0,1.0, 1.0
194,0.0228,0.132,3.45,0.132,3.45,0.2940259096414197,0.0,0.9557974494941571,-0.0,1.0,0.0,1.0,1.0,1.0, 1.0
195,0.0228,0.132,3.45,0.132,3.45,0.33837580797152994,0.0,0.9410110586914558,-0.0,1.0,0.0,1.0,1.0,1.0, 1.0
196,0.0228,0.132,3.45,0.132,3.45,0.3820732476914305,0.0,0.9241320432700746,-0.0,1.0,0.0,1.0,1.0,1.0, 1.0
197,0.0228,0.132,3.45,0.132,3.45,0.42495577520552535,0.0,0.9052141123068458,-0.0,1.0,0.0,1.0,1.0,1.0, 1.0
198,0.0228,0.132,3.45,0.132,3.45,0.4668696876839881,0.0,0.8843261246405963,-0.0,1.0,0.0,1.0,1.0,1.0, 1.0
199,0.0228,0.132,3.45,0.132,3.45,0.5076721835771906,0.0,0.861550320075367,-0.0,1.0,0.0,1.0,1.0,1.0, 1.0
200,0.0228,0.132,3.45,0.132,3.45,0.5472301515605791,0.0,0.83698217497327,-0.0,1.0,0.0,1.0,1.0,1.0, 1.0
201,0.0228,0.132,3.45,0.132,3.45,0.5854126328048758,0.0,0.8107354990084396,-0.0,1.0,0.0,1.0,1.0,1.0, 1.0
202,0.0228,0.132,3.45,0.132,3.45,0.6221062896094519,0.0,0.7829327968787365,-0.0,1.0,0.0,1.0,1.0,1.0, 1.0
203,0.0228,0.132,3.45,0.132,3.45,0.6572616591075129,0.0,0.7536624652105474,-0.0,1.0,0.0,1.0,1.0,1.0, 1.0
204,0.0228,0.132,3.45,0.132,3.45,0.6908700174728887,0.0,0.7229789892915357,-0.0,1.0,0.0,1.0,1.0,1.0, 1.0
205,0.0228,0.132,3.45,0.132,3.45,0.022632750508751322,0.0,0.9997438464948951,-0.0,1.0,0.0,1.0,1.0,1.0, 1.0
206,0.0228,0.132,3.45,0.132,3.45,0.06799834942090634,0.0,0.9976854336292739,-0.0,1.0,0.0,1.0,1.0,1.0, 1.0
207,0.0228,0.132,3.45,0.132,3.45,0.1134517476794837,0.0,0.9935435073254069,-0.0,1.0,0.0,1.0,1.0,1.0, 1.0
208,0.0228,0.132,3.45,0.132,3.45,0.15891658096212707,0.0,0.9872920136896214,-0.0,1.0,0.0,1.0,1.0,1.0, 1.0
209,0.0228,0.132,3.45,0.132,3.45,0.20428228432334838,0.0,0.9789120227638612,-0.0,1.0,0.0,1.0,1.0,1.0, 1.0
210,0.0228,0.132,3.45,0.132,3.45,0.2494183389983155,0.0,0.9683958344454614,-0.0,1.0,0.0,1.0,1.0,1.0, 1.0
211,0.0228,0.132,3.45,0.132,3.45,0.2941834305429461,0.0,0.9557489781286631,-0.0,1.0,0.0,1.0,1.0,1.0, 1.0
212,0.0228,0.132,3.45,0.132,3.45,0.3384328040126382,0.0,0.9409905616785661,-0.0,1.0,0.0,1.0,1.0,1.0, 1.0
213,0.0228,0.132,3.45,0.132,3.45,0.38202014128291306,0.0,0.9241539978024134,-0.0,1.0,0.0,1.0,1.0,1.0, 1.0
214,0.0228,0.132,3.45,0.132,3.45,0.4247954287528939,0.0,0.9052893701522432,-0.0,1.0,0.0,1.0,1.0,1.0, 1.0
215,0.0228,0.132,3.45,0.132,3.45,0.46661946238564916,0.0,0.884458182913657,-0.0,1.0,0.0,1.0,1.0,1.0, 1.0
216,0.0228,0.132,3.45,0.132,3.45,0.5073587505976948,0.0,0.8617349349956436,-0.0,1.0,0.0,1.0,1.0,1.0, 1.0
217,0.0228,0.132,3.45,0.132,3.45,0.5468829389943602,0.0,0.8372090844209056,-0.0,1.0,0.0,1.0,1.0,1.0, 1.0
218,0.0228,0.132,3.45,0.132,3.45,0.5850691246095556,0.0,0.8109834273452253,-0.0,1.0,0.0,1.0,1.0,1.0, 1.0
219,0.0228,0.132,3.45,0.132,3.45,0.6218178332109214,0.0,0.7831619132088042,-0.0,1.0,0.0,1.0,1.0,1.0, 1.0
220,0.0228,0.132,3.45,0.132,3.45,0.657068462567297,0.0,0.7538309064368804,-0.0,1.0,0.0,1.0,1.0,1.0, 1.0
221,0.0228,0.132,3.45,0.132,3.45,0.6908013056749132,0.0,0.7230446432121845,-0.0,1.0,0.0,1.0,1.0,1.0, 1.0
222,0.0228,0.132,3.45,0.132,3.45,0.02270837841613135,0.0,0.9997421315267803,-0.0,1.0,0.0,1.0,1.0,1.0, 1.0
223,0.0228,0.132,3.45,0.132,3.45,0.06821156345453794,0.0,0.9976708789030015,-0.0,1.0,0.0,1.0,1.0,1.0, 1.0
224,0.0228,0.132,3.45,0.132,3.45,0.11376258026121683,0.0,0.993507964403059,-0.0,1.0,0.0,1.0,1.0,1.0, 1.0
225,0.0228,0.132,3.45,0.132,3.45,0.15927285307175093,0.0,0.9872346014369555,-0.0,1.0,0.0,1.0,1.0,1.0, 1.0
226,0.0228,0.132,3.45,0.132,3.45,0.20463173189688372,0.0,0.978839033907456,-0.0,1.0,0.0,1.0,1.0,1.0, 1.0
227,0.0228,0.132,3.45,0.132,3.45,0.24971974371052166,0.0,0.9683181551541578,-0.0,1.0,0.0,1.0,1.0,1.0, 1.0
228,0.0228,0.132,3.45,0.132,3.45,0.2944062792210039,0.0,0.9556803559534142,-0.0,1.0,0.0,1.0,1.0,1.0, 1.0
229,0.0228,0.132,3.45,0.132,3.45,0.338554867656255,0.0,0.940946651827964,-0.0,1.0,0.0,1.0,1.0,1.0, 1.0
230,0.0228,0.132,3.45,0.132,3.45,0.3820278867757331,0.0,0.9241507959882239,-0.0,1.0,0.0,1.0,1.0,1.0, 1.0
231,0.0228,0.132,3.45,0.132,3.45,0.4246953110864192,0.0,0.9053363423287554,-0.0,1.0,0.0,1.0,1.0,1.0, 1.0
232,0.0228,0.132,3.45,0.132,3.45,0.46642938092388636,0.0,0.8845584393418899,-0.0,1.0,0.0,1.0,1.0,1.0, 1.0
233,0.0228,0.132,3.45,0.132,3.45,0.5070982223113278,0.0,0.8618882717201174,-0.0,1.0,0.0,1.0,1.0,1.0, 1.0
234,0.0228,0.132,3.45,0.132,3.45,0.5465789160085902,0.0,0.8374076000221604,-0.0,1.0,0.0,1.0,1.0,1.0, 1.0
235,0.0228,0.132,3.45,0.132,3.45,0.5847668201398222,0.0,0.8112014337164111,-0.0,1.0,0.0,1.0,1.0,1.0, 1.0
236,0.0228,0.132,3.45,0.132,3.45,0.6215611278723129,0.0,0.7833656645003648,-0.0,1.0,0.0,1.0,1.0,1.0, 1.0
237,0.0228,0.132,3.45,0.132,3.45,0.6568938140933528,0.0,0.7539831012734222,-0.0,1.0,0.0,1.0,1.0,1.0, 1.0
238,0.0228,0.132,3.45,0.132,3.45,0.6907410820551615,0.0,0.7231021764323938,-0.0,1.0,0.0,1.0,1.0,1.0, 1.0
239,0.0228,0.132,3.45,0.132,3.45,0.022797383629995432,0.0,0.999740105877336,-0.0,1.0,0.0,1.0,1.0,1.0, 1.0
240,0.0228,0.132,3.45,0.132,3.45,0.06845912451108983,0.0,0.997653922094819,-0.0,1.0,0.0,1.0,1.0,1.0, 1.0
241,0.0228,0.132,3.45,0.132,3.45,0.11412289597770484,0.0,0.9934666399097969,-0.0,1.0,0.0,1.0,1.0,1.0, 1.0
242,0.0228,0.132,3.45,0.132,3.45,0.15969067019397262,0.0,0.9871671033077428,-0.0,1.0,0.0,1.0,1.0,1.0, 1.0
243,0.0228,0.132,3.45,0.132,3.45,0.20505329559460422,0.0,0.9787508089221647,-0.0,1.0,0.0,1.0,1.0,1.0, 1.0
244,0.0228,0.132,3.45,0.132,3.45,0.25009972483358667,0.0,0.9682200822324252,-0.0,1.0,0.0,1.0,1.0,1.0, 1.0
245,0.0228,0.132,3.45,0.132,3.45,0.29471019501939355,0.0,0.9555866789316556,-0.0,1.0,0.0,1.0,1.0,1.0, 1.0
246,0.0228,0.132,3.45,0.132,3.45,0.3387558743351679,0.0,0.9408743048906247,-0.0,1.0,0.0,1.0,1.0,1.0, 1.0
247,0.0228,0.132,3.45,0.132,3.45,0.3821165219962778,0.0,0.9241141507505813,-0.0,1.0,0.0,1.0,1.0,1.0, 1.0
248,0.0228,0.132,3.45,0.132,3.45,0.42467474422974716,0.0,0.905345990002385,-0.0,1.0,0.0,1.0,1.0,1.0, 1.0
249,0.0228,0.132,3.45,0.132,3.45,0.46630681338641006,0.0,0.8846230585901612,-0.0,1.0,0.0,1.0,1.0,1.0, 1.0
250,0.0228,0.132,3.45,0.132,3.45,0.5068994103660589,0.0,0.8620052133082153,-0.0,1.0,0.0,1.0,1.0,1.0, 1.0
251,0.0228,0.132,3.45,0.132,3.45,0.5463347859221421,0.0,0.8375668938606677,-0.0,1.0,0.0,1.0,1.0,1.0, 1.0
252,0.0228,0.132,3.45,0.132,3.45,0.5845088978333851,0.0,0.8113872986149101,-0.0,1.0,0.0,1.0,1.0,1.0, 1.0
253,0.0228,0.132,3.45,0.132,3.45,0.62133513765859,0.0,0.7835449232244319,-0.0,1.0,0.0,1.0,1.0,1.0, 1.0
254,0.0228,0.132,3.45,0.132,3.45,0.6567435762478623,0.0,0.7541139668890694,-0.0,1.0,0.0,1.0,1.0,1.0, 1.0
255,0.0228,0.132,3.45,0.132,3.45,0.6906900350275974,0.0,0.723150935499344,-0.0,1.0,0.0,1.0,1.0,1.0, 1.0
256,0.0228,0.132,3.45,0.132,3.45,0.02290398096688197,0.0,0.9997376694192677,-0.0,1.0,0.0,1.0,1.0,1.0, 1.0
257,0.0228,0.132,3.45,0.132,3.45,0.06874733368333331,0.0,0.9976341033221711,-0.0,1.0,0.0,1.0,1.0,1.0, 1.0
258,0.0228,0.132,3.45,0.132,3.45,0.11453779831379211,0.0,0.9934188908800905,-0.0,1.0,0.0,1.0,1.0,1.0, 1.0
259,0.0228,0.132,3.45,0.132,3.45,0.1601741957308412,0.0,0.9870887634969705,-0.0,1.0,0.0,1.0,1.0,1.0, 1.0
260,0.0228,0.132,3.45,0.132,3.45,0.20555142664781528,0.0,0.9786463155824211,-0.0,1.0,0.0,1.0,1.0,1.0, 1.0
261,0.0228,0.132,3.45,0.132,3.45,0.2505624934575253,0.0,0.9681004270592735,-0.0,1.0,0.0,1.0,1.0,1.0, 1.0
262,0.0228,0.132,3.45,0.132,3.45,0.2950984549860616,0.0,0.9554668502176512,-0.0,1.0,0.0,1.0,1.0,1.0, 1.0
263,0.0228,0.132,3.45,0.132,3.45,0.33904635271597094,0.0,0.94076966931869,-0.0,1.0,0.0,1.0,1.0,1.0, 1.0
264,0.0228,0.132,3.45,0.132,3.45,0.38229577491618,0.0,0.9240400102166776,-0.0,1.0,0.0,1.0,1.0,1.0, 1.0
265,0.0228,0.132,3.45,0.132,3.45,0.42473642514151333,0.0,0.9053170544941742,-0.0,1.0,0.0,1.0,1.0,1.0, 1.0
266,0.0228,0.132,3.45,0.132,3.45,0.4662583834153484,0.0,0.884648585538295,-0.0,1.0,0.0,1.0,1.0,1.0, 1.0
267,0.0228,0.132,3.45,0.132,3.45,0.5067614729335405,0.0,0.8620863121232286,-0.0,1.0,0.0,1.0,1.0,1.0, 1.0
268,0.0228,0.132,3.45,0.132,3.45,0.5461438025200608,0.0,0.8376914389970382,-0.0,1.0,0.0,1.0,1.0,1.0, 1.0
269,0.0228,0.132,3.45,0.132,3.45,0.5842966504902691,0.0,0.8115401556459496,-0.0,1.0,0.0,1.0,1.0,1.0, 1.0
270,0.0228,0.132,3.45,0.132,3.45,0.6211464230936953,0.0,0.7836945330151973,-0.0,1.0,0.0,1.0,1.0,1.0, 1.0
271,0.0228,0.132,3.45,0.132,3.45,0.6566159581565668,0.0,0.7542250880832152,-0.0,1.0,0.0,1.0,1.0,1.0, 1.0
272,0.0228,0.132,3.45,0.132,3.45,0.6906428333003003,0.0,0.7231960154833083,-0.0,1.0,0.0,1.0,1.0,1.0, 1.0
273,0.0228,0.132,3.45,0.132,3.45,0.02302990876236267,0.0,0.9997347764794408,-0.0,1.0,0.0,1.0,1.0,1.0, 1.0
274,0.0228,0.132,3.45,0.132,3.45,0.06907296020411453,0.0,0.9976116108830334,-0.0,1.0,0.0,1.0,1.0,1.0, 1.0
275,0.0228,0.132,3.45,0.132,3.45,0.11500091558228118,0.0,0.9933653856538576,-0.0,1.0,0.0,1.0,1.0,1.0, 1.0
276,0.0228,0.132,3.45,0.132,3.45,0.16071361415443258,0.0,0.9870010811673005,-0.0,1.0,0.0,1.0,1.0,1.0, 1.0
277,0.0228,0.132,3.45,0.132,3.45,0.2061116293439416,0.0,0.9785284851496074,-0.0,1.0,0.0,1.0,1.0,1.0, 1.0
278,0.0228,0.132,3.45,0.132,3.45,0.25109487508898126,0.0,0.9679624805249679,-0.0,1.0,0.0,1.0,1.0,1.0, 1.0
279,0.0228,0.132,3.45,0.132,3.45,0.2955623917377634,0.0,0.9553234387317485,-0.0,1.0,0.0,1.0,1.0,1.0, 1.0
280,0.0228,0.132,3.45,0.132,3.45,0.3394129652905673,0.0,0.9406374641660112,-0.0,1.0,0.0,1.0,1.0,1.0, 1.0
281,0.0228,0.132,3.45,0.132,3.45,0.3825441248738573,0.0,0.9239372232595106,-0.0,1.0,0.0,1.0,1.0,1.0, 1.0
282,0.0228,0.132,3.45,0.132,3.45,0.42486169221698633,0.0,0.9052582739122127,-0.0,1.0,0.0,1.0,1.0,1.0, 1.0
283,0.0228,0.132,3.45,0.132,3.45,0.46627424722049543,0.0,0.8846402242601,-0.0,1.0,0.0,1.0,1.0,1.0, 1.0
284,0.0228,0.132,3.45,0.132,3.45,0.5066811701210462,0.0,0.8621335116121907,-0.0,1.0,0.0,1.0,1.0,1.0, 1.0
285,0.0228,0.132,3.45,0.132,3.45,0.545994436434376,0.0,0.8377888011800517,-0.0,1.0,0.0,1.0,1.0,1.0, 1.0
286,0.0228,0.132,3.45,0.132,3.45,0.5841224873479021,0.0,0.8116655221053188,-0.0,1.0,0.0,1.0,1.0,1.0, 1.0
287,0.0228,0.132,3.45,0.132,3.45,0.6209846548670869,0.0,0.7838227212958331,-0.0,1.0,0.0,1.0,1.0,1.0, 1.0
288,0.0228,0.132,3.45,0.132,3.45,0.6564993555167384,0.0,0.7543265845813117,-0.0,1.0,0.0,1.0,1.0,1.0, 1.0
289,0.0228,0.132,3.45,0.132,3.45,0.6906004949667681,0.0,0.7232364456743418,-0.0,1.0,0.0,1.0,1.0,1.0, 1.0
290,0.0228,0.132,3.45,0.132,3.45,0.023996294343346526,0.0,0.9997120474705642,-0.0,1.0,0.0,1.0,1.0,1.0, 1.0
291,0.0228,0.132,3.45,0.132,3.45,0.0722911488746724,0.0,0.9973835720495801,-0.0,1.0,0.0,1.0,1.0,1.0, 1.0
292,0.0228,0.132,3.45,0.132,3.45,0.12081323848412387,0.0,0.992675254757052,-0.0,1.0,0.0,1.0,1.0,1.0, 1.0
293,0.0228,0.132,3.45,0.132,3.45,0.16942649545316826,0.0,0.9855428263847582,-0.0,1.0,0.0,1.0,1.0,1.0, 1.0
294,0.0228,0.132,3.45,0.132,3.45,0.21797072655185512,0.0,0.9759553075661079,-0.0,1.0,0.0,1.0,1.0,1.0, 1.0
295,0.0228,0.132,3.45,0.132,3.45,0.2662389869888329,0.0,0.9639070503980972,-0.0,1.0,0.0,1.0,1.0,1.0, 1.0
296,0.0228,0.132,3.45,0.132,3.45,0.3139896123679859,0.0,0.9494264180677732,-0.0,1.0,0.0,1.0,1.0,1.0, 1.0
297,0.0228,0.132,3.45,0.132,3.45,0.3609639626507495,0.0,0.9325797647748252,-0.0,1.0,0.0,1.0,1.0,1.0, 1.0
298,0.0228,0.132,3.45,0.132,3.45,0.4068930766324113,0.0,0.9134757928859476,-0.0,1.0,0.0,1.0,1.0,1.0, 1.0
299,0.0228,0.132,3.45,0.132,3.45,0.45149387750174774,0.0,0.8922742171431588,-0.0,1.0,0.0,1.0,1.0,1.0, 1.0
300,0.0228,0.132,3.45,0.132,3.45,0.49448818259643407,0.0,0.8691843517185959,-0.0,1.0,0.0,1.0,1.0,1.0, 1.0
301,0.0228,0.132,3.45,0.132,3.45,0.535594560648748,0.0,0.8444752610961879,-0.0,1.0,0.0,1.0,1.0,1.0, 1.0
302,0.0228,0.132,3.45,0.132,3.45,0.5744811536019647,0.0,0.8185178093090925,-0.0,1.0,0.0,1.0,1.0,1.0, 1.0
303,0.0228,0.132,3.45,0.132,3.45,0.6107641119353431,0.0,0.7918126038222881,-0.0,1.0,0.0,1.0,1.0,1.0, 1.0
304,0.0228,0.132,3.45,0.132,3.45,0.6439083416596747,0.0,0.7651026385662827,-0.0,1.0,0.0,1.0,1.0,1.0, 1.0
305,0.0228,0.132,3.45,0.132,3.45,0.6730526434059974,0.0,0.7395945775924803,-0.0,1.0,0.0,1.0,1.0,1.0, 1.0
306,0.0228,0.132,3.45,0.132,3.45,0.6968440011900712,0.0,0.7172227255221436,-0.0,1.0,0.0,1.0,1.0,1.0, 1.0
307,0.0228,0.132,3.45,0.132,3.45,0.023174152908630227,0.0,0.9997314432571216,-0.0,1.0,0.0,1.0,1.0,1.0, 1.0
308,0.0228,0.132,3.45,0.132,3.45,0.06981564773220002,0.0,0.9975599106478434,-0.0,1.0,0.0,1.0,1.0,1.0, 1.0
309,0.0228,0.132,3.45,0.132,3.45,0.11673963992970746,0.0,0.9931625528930712,-0.0,1.0,0.0,1.0,1.0,1.0, 1.0
310,0.0228,0.132,3.45,0.132,3.45,0.16385356179784794,0.0,0.9864846731126433,-0.0,1.0,0.0,1.0,1.0,1.0, 1.0
311,0.0228,0.132,3.45,0.132,3.45,0.21102602807269263,0.0,0.9774804425030013,-0.0,1.0,0.0,1.0,1.0,1.0, 1.0
312,0.0228,0.132,3.45,0.132,3.45,0.25807328620866354,0.0,0.9661253432890896,-0.0,1.0,0.0,1.0,1.0,1.0, 1.0
313,0.0228,0.132,3.45,0.132,3.45,0.30477162620464354,0.0,0.9524254594773163,-0.0,1.0,0.0,1.0,1.0,1.0, 1.0
314,0.0228,0.132,3.45,0.132,3.45,0.3508775199620651,0.0,0.9364213613460932,-0.0,1.0,0.0,1.0,1.0,1.0, 1.0
315,0.0228,0.132,3.45,0.132,3.45,0.3961354458726424,0.0,0.9181920869422056,-0.0,1.0,0.0,1.0,1.0,1.0, 1.0
316,0.0228,0.132,3.45,0.132,3.45,0.44027046953187404,0.0,0.8978651979323974,-0.0,1.0,0.0,1.0,1.0,1.0, 1.0
317,0.0228,0.132,3.45,0.132,3.45,0.48300978351751883,0.0,0.8756149547754194,-0.0,1.0,0.0,1.0,1.0,1.0, 1.0
318,0.0228,0.132,3.45,0.132,3.45,0.5240874257036122,0.0,0.8516644704455861,-0.0,1.0,0.0,1.0,1.0,1.0, 1.0
319,0.0228,0.132,3.45,0.132,3.45,0.5632164173136124,0.0,0.8263094258620185,-0.0,1.0,0.0,1.0,1.0,1.0, 1.0
320,0.0228,0.132,3.45,0.132,3.45,0.6000917187094084,0.0,0.7999312027520793,-0.0,1.0,0.0,1.0,1.0,1.0, 1.0
321,0.0228,0.132,3.45,0.132,3.45,0.6343657286653861,0.0,0.7730330667538315,-0.0,1.0,0.0,1.0,1.0,1.0, 1.0
322,0.0228,0.132,3.45,0.132,3.45,0.6656817569769994,0.0,0.7462357525795822,-0.0,1.0,0.0,1.0,1.0,1.0, 1.0
323,0.0228,0.132,3.45,0.132,3.45,0.6938992734467283,0.0,0.720072078551934,-0.0,1.0,0.0,1.0,1.0,1.0, 1.0
324,0.0228,0.132,3.45,0.132,3.45,0.022713902229521007,0.0,0.9997420060423128,-0.0,1.0,0.0,1.0,1.0,1.0, 1.0
325,0.0228,0.132,3.45,0.132,3.45,0.0684156109244978,0.0,0.9976569070486244,-0.0,1.0,0.0,1.0,1.0,1.0, 1.0
326,0.0228,0.132,3.45,0.132,3.45,0.11441613095243482,0.0,0.9934329111610282,-0.0,1.0,0.0,1.0,1.0,1.0, 1.0
327,0.0228,0.132,3.45,0.132,3.45,0.1606510171951552,0.0,0.9870112718070458,-0.0,1.0,0.0,1.0,1.0,1.0, 1.0
328,0.0228,0.132,3.45,0.132,3.45,0.20700872735363882,0.0,0.9783390960190781,-0.0,1.0,0.0,1.0,1.0,1.0, 1.0
329,0.0228,0.132,3.45,0.132,3.45,0.2533164846059049,0.0,0.9673834599717457,-0.0,1.0,0.0,1.0,1.0,1.0, 1.0
330,0.0228,0.132,3.45,0.132,3.45,0.2993650972719566,0.0,0.9541386369576237,-0.0,1.0,0.0,1.0,1.0,1.0, 1.0
331,0.0228,0.132,3.45,0.132,3.45,0.34492303217769327,0.0,0.9386309721468529,-0.0,1.0,0.0,1.0,1.0,1.0, 1.0
332,0.0228,0.132,3.45,0.132,3.45,0.38974497273591113,0.0,0.9209228285948198,-0.0,1.0,0.0,1.0,1.0,1.0, 1.0
333,0.0228,0.132,3.45,0.132,3.45,0.43357260276868415,0.0,0.9011186370996822,-0.0,1.0,0.0,1.0,1.0,1.0, 1.0
334,0.0228,0.132,3.45,0.132,3.45,0.476148027579036,0.0,0.8793651436306728,-0.0,1.0,0.0,1.0,1.0,1.0, 1.0
335,0.0228,0.132,3.45,0.132,3.45,0.517223697502601,0.0,0.855850247848149,-0.0,1.0,0.0,1.0,1.0,1.0, 1.0
336,0.0228,0.132,3.45,0.132,3.45,0.5565505990841677,0.0,0.8308137159791321,-0.0,1.0,0.0,1.0,1.0,1.0, 1.0
337,0.0228,0.132,3.45,0.132,3.45,0.5938887400236564,0.0,0.804547179768293,-0.0,1.0,0.0,1.0,1.0,1.0, 1.0
338,0.0228,0.132,3.45,0.132,3.45,0.6290292766576273,0.0,0.7773816109913986,-0.0,1.0,0.0,1.0,1.0,1.0, 1.0
339,0.0228,0.132,3.45,0.132,3.45,0.6618577104183282,0.0,0.7496294892543972,-0.0,1.0,0.0,1.0,1.0,1.0, 1.0
340,0.0228,0.132,3.45,0.132,3.45,0.6924801240034112,0.0,0.7214369534895064,-0.0,1.0,0.0,1.0,1.0,1.0, 1.0
341,0.0228,0.132,3.45,0.132,3.45,0.022478840577967334,0.0,0.9997473189392759,-0.0,1.0,0.0,1.0,1.0,1.0, 1.0
342,0.0228,0.132,3.45,0.132,3.45,0.06768707915803243,0.0,0.9977065998153236,-0.0,1.0,0.0,1.0,1.0,1.0, 1.0
343,0.0228,0.132,3.45,0.132,3.45,0.1131896916198465,0.0,0.9935733962375423,-0.0,1.0,0.0,1.0,1.0,1.0, 1.0
344,0.0228,0.132,3.45,0.132,3.45,0.15893813705491402,0.0,0.9872885437345627,-0.0,1.0,0.0,1.0,1.0,1.0, 1.0
345,0.0228,0.132,3.45,0.132,3.45,0.20483006662009198,0.0,0.9787975499603626,-0.0,1.0,0.0,1.0,1.0,1.0, 1.0
346,0.0228,0.132,3.45,0.132,3.45,0.2507020199368827,0.0,0.9680643042688677,-0.0,1.0,0.0,1.0,1.0,1.0, 1.0
347,0.0228,0.132,3.45,0.132,3.45,0.29635846351486955,0.0,0.9550767828311532,-0.0,1.0,0.0,1.0,1.0,1.0, 1.0
348,0.0228,0.132,3.45,0.132,3.45,0.34157976046630295,0.0,0.9398527901963069,-0.0,1.0,0.0,1.0,1.0,1.0, 1.0
349,0.0228,0.132,3.45,0.132,3.45,0.3861247144979158,0.0,0.9224465864503499,-0.0,1.0,0.0,1.0,1.0,1.0, 1.0
350,0.0228,0.132,3.45,0.132,3.45,0.42975076931632533,0.0,0.9029475490149063,-0.0,1.0,0.0,1.0,1.0,1.0, 1.0
351,0.0228,0.132,3.45,0.132,3.45,0.47222086282328796,0.0,0.8814802645064886,-0.0,1.0,0.0,1.0,1.0,1.0, 1.0
352,0.0228,0.132,3.45,0.132,3.45,0.5132986440944113,0.0,0.8582100570203306,-0.0,1.0,0.0,1.0,1.0,1.0, 1.0
353,0.0228,0.132,3.45,0.132,3.45,0.5527703763833227,0.0,0.8333336132624434,-0.0,1.0,0.0,1.0,1.0,1.0, 1.0
354,0.0228,0.132,3.45,0.132,3.45,0.5904340795750357,0.0,0.8070858675979776,-0.0,1.0,0.0,1.0,1.0,1.0, 1.0
355,0.0228,0.132,3.45,0.132,3.45,0.6261527987390312,0.0,0.7797003736252012,-0.0,1.0,0.0,1.0,1.0,1.0, 1.0
356,0.0228,0.132,3.45,0.132,3.45,0.6598956680448962,0.0,0.7513572434571855,-0.0,1.0,0.0,1.0,1.0,1.0, 1.0
357,0.0228,0.132,3.45,0.132,3.45,0.6917770169907014,0.0,0.7221111817188866,-0.0,1.0,0.0,1.0,1.0,1.0, 1.0
358,0.0228,0.132,3.45,0.132,3.45,0.022371010177393506,0.0,0.9997497376361961,-0.0,1.0,0.0,1.0,1.0,1.0, 1.0
359,0.0228,0.132,3.45,0.132,3.45,0.06734359189725496,0.0,0.9977298435099432,-0.0,1.0,0.0,1.0,1.0,1.0, 1.0
360,0.0228,0.132,3.45,0.132,3.45,0.11259500707297825,0.0,0.9936409635186322,-0.0,1.0,0.0,1.0,1.0,1.0, 1.0
361,0.0228,0.132,3.45,0.132,3.45,0.1580845673013355,0.0,0.9874255767302919,-0.0,1.0,0.0,1.0,1.0,1.0, 1.0
362,0.0228,0.132,3.45,0.132,3.45,0.20371396382601603,0.0,0.9790304494459264,-0.0,1.0,0.0,1.0,1.0,1.0, 1.0
363,0.0228,0.132,3.45,0.132,3.45,0.24932734257988148,0.0,0.9684192667652035,-0.0,1.0,0.0,1.0,1.0,1.0, 1.0
364,0.0228,0.132,3.45,0.132,3.45,0.2947392076534403,0.0,0.9555777307324729,-0.0,1.0,0.0,1.0,1.0,1.0, 1.0
365,0.0228,0.132,3.45,0.132,3.45,0.3397378383545598,0.0,0.9405201758549208,-0.0,1.0,0.0,1.0,1.0,1.0, 1.0
366,0.0228,0.132,3.45,0.132,3.45,0.3840927603240644,0.0,0.9232945096049477,-0.0,1.0,0.0,1.0,1.0,1.0, 1.0
367,0.0228,0.132,3.45,0.132,3.45,0.4275769430300635,0.0,0.9039789587092534,-0.0,1.0,0.0,1.0,1.0,1.0, 1.0
368,0.0228,0.132,3.45,0.132,3.45,0.46996907634919693,0.0,0.8826828803570864,-0.0,1.0,0.0,1.0,1.0,1.0, 1.0
369,0.0228,0.132,3.45,0.132,3.45,0.5110423653715456,0.0,0.8595555251381121,-0.0,1.0,0.0,1.0,1.0,1.0, 1.0
370,0.0228,0.132,3.45,0.132,3.45,0.5506044286160174,0.0,0.834766292556443,-0.0,1.0,0.0,1.0,1.0,1.0, 1.0
371,0.0228,0.132,3.45,0.132,3.45,0.5884891719631491,0.0,0.8085050986123262,-0.0,1.0,0.0,1.0,1.0,1.0, 1.0
372,0.0228,0.132,3.45,0.132,3.45,0.6245786525134631,0.0,0.7809619112507772,-0.0,1.0,0.0,1.0,1.0,1.0, 1.0
373,0.0228,0.132,3.45,0.132,3.45,0.6588514235283713,0.0,0.752273089851444,-0.0,1.0,0.0,1.0,1.0,1.0, 1.0
374,0.0228,0.132,3.45,0.132,3.45,0.6914058131662041,0.0,0.7224666092768441,-0.0,1.0,0.0,1.0,1.0,1.0, 1.0
375,0.0228,0.132,3.45,0.132,3.45,0.022332670228276657,0.0,0.9997505948187654,-0.0,1.0,0.0,1.0,1.0,1.0, 1.0
376,0.0228,0.132,3.45,0.132,3.45,0.06721482088684987,0.0,0.9977385267960482,-0.0,1.0,0.0,1.0,1.0,1.0, 1.0
377,0.0228,0.132,3.45,0.132,3.45,0.11235672684443039,0.0,0.9936679354456427,-0.0,1.0,0.0,1.0,1.0,1.0, 1.0
378,0.0228,0.132,3.45,0.132,3.45,0.157716399349172,0.0,0.9874844491820277,-0.0,1.0,0.0,1.0,1.0,1.0, 1.0
379,0.0228,0.132,3.45,0.132,3.45,0.20319636809052627,0.0,0.9791380066133779,-0.0,1.0,0.0,1.0,1.0,1.0, 1.0
380,0.0228,0.132,3.45,0.132,3.45,0.2486501615469293,0.0,0.9685933600653506,-0.0,1.0,0.0,1.0,1.0,1.0, 1.0
381,0.0228,0.132,3.45,0.132,3.45,0.2938982953034404,0.0,0.9558366973587756,-0.0,1.0,0.0,1.0,1.0,1.0, 1.0
382,0.0228,0.132,3.45,0.132,3.45,0.3387364265876626,0.0,0.9408813067027216,-0.0,1.0,0.0,1.0,1.0,1.0, 1.0
383,0.0228,0.132,3.45,0.132,3.45,0.3829500826665639,0.0,0.9237690372521,-0.0,1.0,0.0,1.0,1.0,1.0, 1.0
384,0.0228,0.132,3.45,0.132,3.45,0.42632156157038975,0.0,0.9045716810403608,-0.0,1.0,0.0,1.0,1.0,1.0, 1.0
385,0.0228,0.132,3.45,0.132,3.45,0.46864244812567635,0.0,0.8833879418549773,-0.0,1.0,0.0,1.0,1.0,1.0, 1.0
386,0.0228,0.132,3.45,0.132,3.45,0.5097054554067505,0.0,0.8603489691564681,-0.0,1.0,0.0,1.0,1.0,1.0, 1.0
387,0.0228,0.132,3.45,0.132,3.45,0.5493225425025422,0.0,0.8356104022201633,-0.0,1.0,0.0,1.0,1.0,1.0, 1.0
388,0.0228,0.132,3.45,0.132,3.45,0.5873400451898417,0.0,0.8093402691800246,-0.0,1.0,0.0,1.0,1.0,1.0, 1.0
389,0.0228,0.132,3.45,0.132,3.45,0.623658028445821,0.0,0.781697296627711,-0.0,1.0,0.0,1.0,1.0,1.0, 1.0
390,0.0228,0.132,3.45,0.132,3.45,0.6582517716798068,0.0,0.752797851405273,-0.0,1.0,0.0,1.0,1.0,1.0, 1.0
391,0.0228,0.132,3.45,0.132,3.45,0.6911995242253325,0.0,0.7226639728882809,-0.0,1.0,0.0,1.0,1.0,1.0, 1.0
392,0.0228,0.132,3.45,0.132,3.45,0.022332901521884354,0.0,0.999750589652046,-0.0,1.0,0.0,1.0,1.0,1.0, 1.0
393,0.0228,0.132,3.45,0.132,3.45,0.06720670102365155,0.0,0.9977390737750614,-0.0,1.0,0.0,1.0,1.0,1.0, 1.0
394,0.0228,0.132,3.45,0.132,3.45,0.11231894799653591,0.0,0.9936722064750283,-0.0,1.0,0.0,1.0,1.0,1.0, 1.0
395,0.0228,0.132,3.45,0.132,3.45,0.15762129730729516,0.0,0.9874996337392563,-0.0,1.0,0.0,1.0,1.0,1.0, 1.0
396,0.0228,0.132,3.45,0.132,3.45,0.20301783382634858,0.0,0.9791750400967423,-0.0,1.0,0.0,1.0,1.0,1.0, 1.0
397,0.0228,0.132,3.45,0.132,3.45,0.24836605335630166,0.0,0.968666249819934,-0.0,1.0,0.0,1.0,1.0,1.0, 1.0
398,0.0228,0.132,3.45,0.132,3.45,0.2934951609308811,0.0,0.9559605590766578,-0.0,1.0,0.0,1.0,1.0,1.0, 1.0
399,0.0228,0.132,3.45,0.132,3.45,0.338211572900706,0.0,0.9410700993847537,-0.0,1.0,0.0,1.0,1.0,1.0, 1.0
400,0.0228,0.132,3.45,0.132,3.45,0.38230967185895004,0.0,0.924034260621922,-0.0,1.0,0.0,1.0,1.0,1.0, 1.0
401,0.0228,0.132,3.45,0.132,3.45,0.42558368341960146,0.0,0.9049190728496137,-0.0,1.0,0.0,1.0,1.0,1.0, 1.0
402,0.0228,0.132,3.45,0.132,3.45,0.46783116742490455,0.0,0.8838178538510358,-0.0,1.0,0.0,1.0,1.0,1.0, 1.0
403,0.0228,0.132,3.45,0.132,3.45,0.5088603931621206,0.0,0.8608490577742953,-0.0,1.0,0.0,1.0,1.0,1.0, 1.0
404,0.0228,0.132,3.45,0.132,3.45,0.5485026230481138,0.0,0.8361488339460497,-0.0,1.0,0.0,1.0,1.0,1.0, 1.0
405,0.0228,0.132,3.45,0.132,3.45,0.5866054297182852,0.0,0.8098728726318878,-0.0,1.0,0.0,1.0,1.0,1.0, 1.0
406,0.0228,0.132,3.45,0.132,3.45,0.6230757380160261,0.0,0.7821615080632545,-0.0,1.0,0.0,1.0,1.0,1.0, 1.0
407,0.0228,0.132,3.45,0.132,3.45,0.6578843252126673,0.0,0.7531189910229814,-0.0,1.0,0.0,1.0,1.0,1.0, 1.0
408,0.0228,0.132,3.45,0.132,3.45,0.6910771102593218,0.0,0.7227810371582981,-0.0,1.0,0.0,1.0,1.0,1.0, 1.0
409,0.0228,0.132,3.45,0.132,3.45,0.022355611937982932,0.0,0.9997500820779553,-0.0,1.0,0.0,1.0,1.0,1.0, 1.0
410,0.0228,0.132,3.45,0.132,3.45,0.06726797528614874,0.0,0.9977349445122697,-0.0,1.0,0.0,1.0,1.0,1.0, 1.0
411,0.0228,0.132,3.45,0.132,3.45,0.11239589869344795,0.0,0.9936635053965162,-0.0,1.0,0.0,1.0,1.0,1.0, 1.0
412,0.0228,0.132,3.45,0.132,3.45,0.15768266634237904,0.0,0.9874898362692944,-0.0,1.0,0.0,1.0,1.0,1.0, 1.0
413,0.0228,0.132,3.45,0.132,3.45,0.20303408976751153,0.0,0.979171669520865,-0.0,1.0,0.0,1.0,1.0,1.0, 1.0
414,0.0228,0.132,3.45,0.132,3.45,0.24830982059041865,0.0,0.968680666163186,-0.0,1.0,0.0,1.0,1.0,1.0, 1.0
415,0.0228,0.132,3.45,0.132,3.45,0.2933448569634788,0.0,0.9560066918662632,-0.0,1.0,0.0,1.0,1.0,1.0, 1.0
416,0.0228,0.132,3.45,0.132,3.45,0.3379542176249785,0.0,0.9411625506730963,-0.0,1.0,0.0,1.0,1.0,1.0, 1.0
417,0.0228,0.132,3.45,0.132,3.45,0.38194583595454407,0.0,0.9241847101077708,-0.0,1.0,0.0,1.0,1.0,1.0, 1.0
418,0.0228,0.132,3.45,0.132,3.45,0.42512813197856725,0.0,0.9051331788197878,-0.0,1.0,0.0,1.0,1.0,1.0, 1.0
419,0.0228,0.132,3.45,0.132,3.45,0.46730235545788285,0.0,0.8840975673439638,-0.0,1.0,0.0,1.0,1.0,1.0, 1.0
420,0.0228,0.132,3.45,0.132,3.45,0.508290938421466,0.0,0.8611854166894755,-0.0,1.0,0.0,1.0,1.0,1.0, 1.0
421,0.0228,0.132,3.45,0.132,3.45,0.5479392962822595,0.0,0.8365180975864792,-0.0,1.0,0.0,1.0,1.0,1.0, 1.0
422,0.0228,0.132,3.45,0.132,3.45,0.5860962759691687,0.0,0.8102414179089292,-0.0,1.0,0.0,1.0,1.0,1.0, 1.0
423,0.0228,0.132,3.45,0.132,3.45,0.6226707541102674,0.0,0.7824839499796471,-0.0,1.0,0.0,1.0,1.0,1.0, 1.0
424,0.0228,0.132,3.45,0.132,3.45,0.6576260076658414,0.0,0.7533445652830362,-0.0,1.0,0.0,1.0,1.0,1.0, 1.0
425,0.0228,0.132,3.45,0.132,3.45,0.6909898663574471,0.0,0.7228644441327278,-0.0,1.0,0.0,1.0,1.0,1.0, 1.0
426,0.0228,0.132,3.45,0.132,3.45,0.022391870165905665,0.0,0.9997492706426313,-0.0,1.0,0.0,1.0,1.0,1.0, 1.0
427,0.0228,0.132,3.45,0.132,3.45,0.06737084723390108,0.0,0.9977280034874165,-0.0,1.0,0.0,1.0,1.0,1.0, 1.0
428,0.0228,0.132,3.45,0.132,3.45,0.11254321918325925,0.0,0.9936468305267565,-0.0,1.0,0.0,1.0,1.0,1.0, 1.0
429,0.0228,0.132,3.45,0.132,3.45,0.15783988077178265,0.0,0.9874647193889761,-0.0,1.0,0.0,1.0,1.0,1.0, 1.0
430,0.0228,0.132,3.45,0.132,3.45,0.20316405970792942,0.0,0.9791447108793434,-0.0,1.0,0.0,1.0,1.0,1.0, 1.0
431,0.0228,0.132,3.45,0.132,3.45,0.2483842034016692,0.0,0.9686615959665781,-0.0,1.0,0.0,1.0,1.0,1.0, 1.0
432,0.0228,0.132,3.45,0.132,3.45,0.29333977691824153,0.0,0.956008250632575,-0.0,1.0,0.0,1.0,1.0,1.0, 1.0
433,0.0228,0.132,3.45,0.132,3.45,0.337851161077274,0.0,0.9411995500204714,-0.0,1.0,0.0,1.0,1.0,1.0, 1.0
434,0.0228,0.132,3.45,0.132,3.45,0.3817439942781921,0.0,0.9242681011657449,-0.0,1.0,0.0,1.0,1.0,1.0, 1.0
435,0.0228,0.132,3.45,0.132,3.45,0.4248353524048886,0.0,0.9052706354162904,-0.0,1.0,0.0,1.0,1.0,1.0, 1.0
436,0.0228,0.132,3.45,0.132,3.45,0.4669353587813055,0.0,0.884291451230743,-0.0,1.0,0.0,1.0,1.0,1.0, 1.0
437,0.0228,0.132,3.45,0.132,3.45,0.5078824120652343,0.0,0.861426407486327,-0.0,1.0,0.0,1.0,1.0,1.0, 1.0
438,0.0228,0.132,3.45,0.132,3.45,0.5475183683044055,0.0,0.8367936641546,-0.0,1.0,0.0,1.0,1.0,1.0, 1.0
439,0.0228,0.132,3.45,0.132,3.45,0.5857034792360093,0.0,0.8105254063944163,-0.0,1.0,0.0,1.0,1.0,1.0, 1.0
440,0.0228,0.132,3.45,0.132,3.45,0.622354403250625,0.0,0.7827355854658444,-0.0,1.0,0.0,1.0,1.0,1.0, 1.0
441,0.0228,0.132,3.45,0.132,3.45,0.6574184257191334,0.0,0.7535257218734981,-0.0,1.0,0.0,1.0,1.0,1.0, 1.0
442,0.0228,0.132,3.45,0.132,3.45,0.6909179603514802,0.0,0.7229331726126216,-0.0,1.0,0.0,1.0,1.0,1.0, 1.0
443,0.0228,0.132,3.45,0.132,3.45,0.02243696178331044,0.0,0.9997482596863745,-0.0,1.0,0.0,1.0,1.0,1.0, 1.0
444,0.0228,0.132,3.45,0.132,3.45,0.06750025959021898,0.0,0.9977192565823579,-0.0,1.0,0.0,1.0,1.0,1.0, 1.0
445,0.0228,0.132,3.45,0.132,3.45,0.11273389767935424,0.0,0.9936252152164925,-0.0,1.0,0.0,1.0,1.0,1.0, 1.0
446,0.0228,0.132,3.45,0.132,3.45,0.158056213684584,0.0,0.9874301156617075,-0.0,1.0,0.0,1.0,1.0,1.0, 1.0
447,0.0228,0.132,3.45,0.132,3.45,0.20336782298546824,0.0,0.979102409645769,-0.0,1.0,0.0,1.0,1.0,1.0, 1.0
448,0.0228,0.132,3.45,0.132,3.45,0.24854022934259776,0.0,0.9686215744026814,-0.0,1.0,0.0,1.0,1.0,1.0, 1.0
449,0.0228,0.132,3.45,0.132,3.45,0.2934219227516139,0.0,0.9559830412976716,-0.0,1.0,0.0,1.0,1.0,1.0, 1.0
450,0.0228,0.132,3.45,0.132,3.45,0.33784526675008136,0.0,0.9412016658158688,-0.0,1.0,0.0,1.0,1.0,1.0, 1.0
451,0.0228,0.132,3.45,0.132,3.45,0.3816433958869809,0.0,0.9243096442079642,-0.0,1.0,0.0,1.0,1.0,1.0, 1.0
452,0.0228,0.132,3.45,0.132,3.45,0.42464601996413387,0.0,0.9053594632678341,-0.0,1.0,0.0,1.0,1.0,1.0, 1.0
453,0.0228,0.132,3.45,0.132,3.45,0.46666874790148594,0.0,0.8844321792721358,-0.0,1.0,0.0,1.0,1.0,1.0, 1.0
454,0.0228,0.132,3.45,0.132,3.45,0.5075621603281102,0.0,0.8616151422781877,-0.0,1.0,0.0,1.0,1.0,1.0, 1.0
455,0.0228,0.132,3.45,0.132,3.45,0.5471761440517571,0.0,0.8370174833183897,-0.0,1.0,0.0,1.0,1.0,1.0, 1.0
456,0.0228,0.132,3.45,0.132,3.45,0.5853791343832325,0.0,0.8107596863613393,-0.0,1.0,0.0,1.0,1.0,1.0, 1.0
457,0.0228,0.132,3.45,0.132,3.45,0.6220893878812442,0.0,0.7829462264329136,-0.0,1.0,0.0,1.0,1.0,1.0, 1.0
458,0.0228,0.132,3.45,0.132,3.45,0.6572502795142154,0.0,0.7536723890912321,-0.0,1.0,0.0,1.0,1.0,1.0, 1.0
459,0.0228,0.132,3.45,0.132,3.45,0.6908638327046637,0.0,0.7229848993309766,-0.0,1.0,0.0,1.0,1.0,1.0, 1.0
460,0.0228,0.132,3.45,0.132,3.45,0.022488632139436148,0.0,0.9997470987327232,-0.0,1.0,0.0,1.0,1.0,1.0, 1.0
461,0.0228,0.132,3.45,0.132,3.45,0.06764974870578672,0.0,0.9977091317112637,-0.0,1.0,0.0,1.0,1.0,1.0, 1.0
462,0.0228,0.132,3.45,0.132,3.45,0.11295615249723455,0.0,0.9935999736377923,-0.0,1.0,0.0,1.0,1.0,1.0, 1.0
463,0.0228,0.132,3.45,0.132,3.45,0.15831485317002614,0.0,0.9873886809487706,-0.0,1.0,0.0,1.0,1.0,1.0, 1.0
464,0.0228,0.132,3.45,0.132,3.45,0.2036230643310375,0.0,0.9790493591604247,-0.0,1.0,0.0,1.0,1.0,1.0, 1.0
465,0.0228,0.132,3.45,0.132,3.45,0.24875456240627025,0.0,0.9685665530473706,-0.0,1.0,0.0,1.0,1.0,1.0, 1.0
466,0.0228,0.132,3.45,0.132,3.45,0.29356652097187436,0.0,0.9559386474897175,-0.0,1.0,0.0,1.0,1.0,1.0, 1.0
467,0.0228,0.132,3.45,0.132,3.45,0.3379049958896999,0.0,0.9411802238427994,-0.0,1.0,0.0,1.0,1.0,1.0, 1.0
468,0.0228,0.132,3.45,0.132,3.45,0.38160851540497254,0.0,0.9243240454355891,-0.0,1.0,0.0,1.0,1.0,1.0, 1.0
469,0.0228,0.132,3.45,0.132,3.45,0.42451829579851663,0.0,0.9054193594861573,-0.0,1.0,0.0,1.0,1.0,1.0, 1.0
470,0.0228,0.132,3.45,0.132,3.45,0.46646351347540055,0.0,0.8845404403396064,-0.0,1.0,0.0,1.0,1.0,1.0, 1.0
471,0.0228,0.132,3.45,0.132,3.45,0.5072954451427468,0.0,0.8617722038551848,-0.0,1.0,0.0,1.0,1.0,1.0, 1.0
472,0.0228,0.132,3.45,0.132,3.45,0.5468905539376312,0.0,0.8372041101271487,-0.0,1.0,0.0,1.0,1.0,1.0, 1.0
473,0.0228,0.132,3.45,0.132,3.45,0.5851094486680043,0.0,0.8109543347682556,-0.0,1.0,0.0,1.0,1.0,1.0, 1.0
474,0.0228,0.132,3.45,0.132,3.45,0.6218572453444166,0.0,0.783130618998296,-0.0,1.0,0.0,1.0,1.0,1.0, 1.0
475,0.0228,0.132,3.45,0.132,3.45,0.6570992110343365,0.0,0.7538041037683813,-0.0,1.0,0.0,1.0,1.0,1.0, 1.0
476,0.0228,0.132,3.45,0.132,3.45,0.6908143752284082,0.0,0.7230321562543288,-0.0,1.0,0.0,1.0,1.0,1.0, 1.0
477,0.0228,0.132,3.45,0.132,3.45,0.022545873031910635,0.0,0.999745809498209,-0.0,1.0,0.0,1.0,1.0,1.0, 1.0
478,0.0228,0.132,3.45,0.132,3.45,0.06781677584849678,0.0,0.9976977923767871,-0.0,1.0,0.0,1.0,1.0,1.0, 1.0
479,0.0228,0.132,3.45,0.132,3.45,0.11320624268427543,0.0,0.9935715105704818,-0.0,1.0,0.0,1.0,1.0,1.0, 1.0
480,0.0228,0.132,3.45,0.132,3.45,0.1586086999679544,0.0,0.9873415216096584,-0.0,1.0,0.0,1.0,1.0,1.0, 1.0
481,0.0228,0.132,3.45,0.132,3.45,0.20391892239122003,0.0,0.9789877798475339,-0.0,1.0,0.0,1.0,1.0,1.0, 1.0
482,0.0228,0.132,3.45,0.132,3.45,0.24901704426247565,0.0,0.9684991025637455,-0.0,1.0,0.0,1.0,1.0,1.0, 1.0
483,0.0228,0.132,3.45,0.132,3.45,0.29376583505515935,0.0,0.9558774158616495,-0.0,1.0,0.0,1.0,1.0,1.0, 1.0
484,0.0228,0.132,3.45,0.132,3.45,0.3380206363471674,0.0,0.9411386982817442,-0.0,1.0,0.0,1.0,1.0,1.0, 1.0
485,0.0228,0.132,3.45,0.132,3.45,0.3816299814368535,0.0,0.9243151828616182,-0.0,1.0,0.0,1.0,1.0,1.0, 1.0
486,0.0228,0.132,3.45,0.132,3.45,0.4244419499984588,0.0,0.9054551513363353,-0.0,1.0,0.0,1.0,1.0,1.0, 1.0
487,0.0228,0.132,3.45,0.132,3.45,0.46630714191516554,0.0,0.884622885414406,-0.0,1.0,0.0,1.0,1.0,1.0, 1.0
488,0.0228,0.132,3.45,0.132,3.45,0.5070832391820245,0.0,0.861897086977712,-0.0,1.0,0.0,1.0,1.0,1.0, 1.0
489,0.0228,0.132,3.45,0.132,3.45,0.5466438587627616,0.0,0.8373652080645326,-0.0,1.0,0.0,1.0,1.0,1.0, 1.0
490,0.0228,0.132,3.45,0.132,3.45,0.5848620469347514,0.0,0.8111327795467844,-0.0,1.0,0.0,1.0,1.0,1.0, 1.0
491,0.0228,0.132,3.45,0.132,3.45,0.6216530921992927,0.0,0.7832926866497976,-0.0,1.0,0.0,1.0,1.0,1.0, 1.0
492,0.0228,0.132,3.45,0.132,3.45,0.6569636562291913,0.0,0.7539222469154052,-0.0,1.0,0.0,1.0,1.0,1.0, 1.0
493,0.0228,0.132,3.45,0.132,3.45,0.6907657910014176,0.0,0.7230785724817088,-0.0,1.0,0.0,1.0,1.0,1.0, 1.0
494,0.0228,0.132,3.45,0.132,3.45,0.022610394240585426,0.0,0.9997443523582843,-0.0,1.0,0.0,1.0,1.0,1.0, 1.0
495,0.0228,0.132,3.45,0.132,3.45,0.06800321193479304,0.0,0.9976851022073808,-0.0,1.0,0.0,1.0,1.0,1.0, 1.0
496,0.0228,0.132,3.45,0.132,3.45,0.11348497365907859,0.0,0.9935397127209352,-0.0,1.0,0.0,1.0,1.0,1.0, 1.0
497,0.0228,0.132,3.45,0.132,3.45,0.1589395358453368,0.0,0.9872883185499912,-0.0,1.0,0.0,1.0,1.0,1.0, 1.0
498,0.0228,0.132,3.45,0.132,3.45,0.20425938532644292,0.0,0.9789168011154287,-0.0,1.0,0.0,1.0,1.0,1.0, 1.0
499,0.0228,0.132,3.45,0.132,3.45,0.24932736293003638,0.0,0.968419261525892,-0.0,1.0,0.0,1.0,1.0,1.0, 1.0
500,0.0228,0.132,3.45,0.132,3.45,0.2940155046757372,0.0,0.9558006502457882,-0.0,1.0,0.0,1.0,1.0,1.0, 1.0
501,0.0228,0.132,3.45,0.132,3.45,0.3381873207408798,0.0,0.9410788150256627,-0.0,1.0,0.0,1.0,1.0,1.0, 1.0
502,0.0228,0.132,3.45,0.132,3.45,0.3817003653656675,0.0,0.924286119705211,-0.0,1.0,0.0,1.0,1.0,1.0, 1.0
503,0.0228,0.132,3.45,0.132,3.45,0.424415496606207,0.0,0.9054675511803318,-0.0,1.0,0.0,1.0,1.0,1.0, 1.0
504,0.0228,0.132,3.45,0.132,3.45,0.4661969986643648,0.0,0.8846809359516787,-0.0,1.0,0.0,1.0,1.0,1.0, 1.0
505,0.0228,0.132,3.45,0.132,3.45,0.5069101800019111,0.0,0.8619988801677356,-0.0,1.0,0.0,1.0,1.0,1.0, 1.0
506,0.0228,0.132,3.45,0.132,3.45,0.5464269535661257,0.0,0.8375067667884499,-0.0,1.0,0.0,1.0,1.0,1.0, 1.0
507,0.0228,0.132,3.45,0.132,3.45,0.5846378520952005,0.0,0.811294386704056,-0.0,1.0,0.0,1.0,1.0,1.0, 1.0
508,0.0228,0.132,3.45,0.132,3.45,0.62146765197973,0.0,0.7834398238172483,-0.0,1.0,0.0,1.0,1.0,1.0, 1.0
509,0.0228,0.132,3.45,0.132,3.45,0.6568395307351104,0.0,0.7540303912069328,-0.0,1.0,0.0,1.0,1.0,1.0, 1.0
510,0.0228,0.132,3.45,0.132,3.45,0.690720758977706,0.0,0.7231215894420948,-0.0,1.0,0.0,1.0,1.0,1.0, 1.0
511,0.0228,0.132,3.45,0.132,3.45,0.022684947195427123,0.0,0.9997426634743266,-0.0,1.0,0.0,1.0,1.0,1.0, 1.0
512,0.0228,0.132,3.45,0.132,3.45,0.06821575001325507,0.0,0.997670592655777,-0.0,1.0,0.0,1.0,1.0,1.0, 1.0
513,0.0228,0.132,3.45,0.132,3.45,0.11380175515840775,0.0,0.9935034778614847,-0.0,1.0,0.0,1.0,1.0,1.0, 1.0
514,0.0228,0.132,3.45,0.132,3.45,0.1593163207280063,0.0,0.9872275877170831,-0.0,1.0,0.0,1.0,1.0,1.0, 1.0
515,0.0228,0.132,3.45,0.132,3.45,0.20465064704450414,0.0,0.9788350794001336,-0.0,1.0,0.0,1.0,1.0,1.0, 1.0
516,0.0228,0.132,3.45,0.132,3.45,0.24969116565935207,0.0,0.9683255247031723,-0.0,1.0,0.0,1.0,1.0,1.0, 1.0
517,0.0228,0.132,3.45,0.132,3.45,0.29431891622074813,0.0,0.9557072645714504,-0.0,1.0,0.0,1.0,1.0,1.0, 1.0
518,0.0228,0.132,3.45,0.132,3.45,0.33840676651178536,0.0,0.9409999258124508,-0.0,1.0,0.0,1.0,1.0,1.0, 1.0
519,0.0228,0.132,3.45,0.132,3.45,0.38182352782313095,0.0,0.9242352479756974,-0.0,1.0,0.0,1.0,1.0,1.0, 1.0
520,0.0228,0.132,3.45,0.132,3.45,0.42444063428708134,0.0,0.9054557680891872,-0.0,1.0,0.0,1.0,1.0,1.0, 1.0
521,0.0228,0.132,3.45,0.132,3.45,0.4661327201776004,0.0,0.8847148055615611,-0.0,1.0,0.0,1.0,1.0,1.0, 1.0
522,0.0228,0.132,3.45,0.132,3.45,0.5067774124642572,0.0,0.8620769421670156,-0.0,1.0,0.0,1.0,1.0,1.0, 1.0
523,0.0228,0.132,3.45,0.132,3.45,0.5462523385942636,0.0,0.8376206674744231,-0.0,1.0,0.0,1.0,1.0,1.0, 1.0
524,0.0228,0.132,3.45,0.132,3.45,0.5844557237049481,0.0,0.8114256016595269,-0.0,1.0,0.0,1.0,1.0,1.0, 1.0
525,0.0228,0.132,3.45,0.132,3.45,0.621305890525752,0.0,0.7835681147149891,-0.0,1.0,0.0,1.0,1.0,1.0, 1.0
526,0.0228,0.132,3.45,0.132,3.45,0.6567275478110407,0.0,0.7541279254517084,-0.0,1.0,0.0,1.0,1.0,1.0, 1.0
527,0.0228,0.132,3.45,0.132,3.45,0.6906829369041604,0.0,0.7231577149346079,-0.0,1.0,0.0,1.0,1.0,1.0, 1.0
528,0.0228,0.132,3.45,0.132,3.45,0.022774077114060553,0.0,0.9997406370712371,-0.0,1.0,0.0,1.0,1.0,1.0, 1.0
529,0.0228,0.132,3.45,0.132,3.45,0.06846120203538972,0.0,0.9976537795326942,-0.0,1.0,0.0,1.0,1.0,1.0, 1.0
530,0.0228,0.132,3.45,0.132,3.45,0.1141623708827009,0.0,0.9934621044984255,-0.0,1.0,0.0,1.0,1.0,1.0, 1.0
531,0.0228,0.132,3.45,0.132,3.45,0.159742607517905,0.0,0.9871587001811717,-0.0,1.0,0.0,1.0,1.0,1.0, 1.0
532,0.0228,0.132,3.45,0.132,3.45,0.20509413485060157,0.0,0.9787422519999243,-0.0,1.0,0.0,1.0,1.0,1.0, 1.0
533,0.0228,0.132,3.45,0.132,3.45,0.25011155802044877,0.0,0.968217025539514,-0.0,1.0,0.0,1.0,1.0,1.0, 1.0
534,0.0228,0.132,3.45,0.132,3.45,0.2946811776924241,0.0,0.9555956276133781,-0.0,1.0,0.0,1.0,1.0,1.0, 1.0
535,0.0228,0.132,3.45,0.132,3.45,0.3386855985813781,0.0,0.9408996042690069,-0.0,1.0,0.0,1.0,1.0,1.0, 1.0
536,0.0228,0.132,3.45,0.132,3.45,0.38200679173767765,0.0,0.924159516028638,-0.0,1.0,0.0,1.0,1.0,1.0, 1.0
537,0.0228,0.132,3.45,0.132,3.45,0.42452431997781837,0.0,0.9054165349425484,-0.0,1.0,0.0,1.0,1.0,1.0, 1.0
538,0.0228,0.132,3.45,0.132,3.45,0.46612397535551825,0.0,0.8847194129207114,-0.0,1.0,0.0,1.0,1.0,1.0, 1.0
539,0.0228,0.132,3.45,0.132,3.45,0.506697577033533,0.0,0.8621238689587168,-0.0,1.0,0.0,1.0,1.0,1.0, 1.0
540,0.0228,0.132,3.45,0.132,3.45,0.5461235829208936,0.0,0.8377046210793194,-0.0,1.0,0.0,1.0,1.0,1.0, 1.0
541,0.0228,0.132,3.45,0.132,3.45,0.5843018700775054,0.0,0.8115363975965155,-0.0,1.0,0.0,1.0,1.0,1.0, 1.0
542,0.0228,0.132,3.45,0.132,3.45,0.6211628908619177,0.0,0.7836814805876591,-0.0,1.0,0.0,1.0,1.0,1.0, 1.0
543,0.0228,0.132,3.45,0.132,3.45,0.6566286896992789,0.0,0.7542140040226036,-0.0,1.0,0.0,1.0,1.0,1.0, 1.0
544,0.0228,0.132,3.45,0.132,3.45,0.6906485170833514,0.0,0.7231905875013636,-0.0,1.0,0.0,1.0,1.0,1.0, 1.0
545,0.0228,0.132,3.45,0.132,3.45,0.022884290748375856,0.0,0.9997381203279905,-0.0,1.0,0.0,1.0,1.0,1.0, 1.0
546,0.0228,0.132,3.45,0.132,3.45,0.06874685876412037,0.0,0.9976341360489155,-0.0,1.0,0.0,1.0,1.0,1.0, 1.0
547,0.0228,0.132,3.45,0.132,3.45,0.11456817540442939,0.0,0.9934153880348844,-0.0,1.0,0.0,1.0,1.0,1.0, 1.0
548,0.0228,0.132,3.45,0.132,3.45,0.1602168855242274,0.0,0.9870818353069398,-0.0,1.0,0.0,1.0,1.0,1.0, 1.0
549,0.0228,0.132,3.45,0.132,3.45,0.20558917902654467,0.0,0.9786383854454062,-0.0,1.0,0.0,1.0,1.0,1.0, 1.0
550,0.0228,0.132,3.45,0.132,3.45,0.25058606204413975,0.0,0.9680943267622275,-0.0,1.0,0.0,1.0,1.0,1.0, 1.0
551,0.0228,0.132,3.45,0.132,3.45,0.2951006850982499,0.0,0.955466161438773,-0.0,1.0,0.0,1.0,1.0,1.0, 1.0
552,0.0228,0.132,3.45,0.132,3.45,0.33902348664790427,0.0,0.9407779097646257,-0.0,1.0,0.0,1.0,1.0,1.0, 1.0
553,0.0228,0.132,3.45,0.132,3.45,0.3822458639965112,0.0,0.9240606578886261,-0.0,1.0,0.0,1.0,1.0,1.0, 1.0
554,0.0228,0.132,3.45,0.132,3.45,0.42466259167246934,0.0,0.9053516903579634,-0.0,1.0,0.0,1.0,1.0,1.0, 1.0
555,0.0228,0.132,3.45,0.132,3.45,0.46616748222188054,0.0,0.8846964894916858,-0.0,1.0,0.0,1.0,1.0,1.0, 1.0
556,0.0228,0.132,3.45,0.132,3.45,0.5066568259899438,0.0,0.8621478183454366,-0.0,1.0,0.0,1.0,1.0,1.0, 1.0
557,0.0228,0.132,3.45,0.132,3.45,0.5460258669732342,0.0,0.8377683167774537,-0.0,1.0,0.0,1.0,1.0,1.0, 1.0
558,0.0228,0.132,3.45,0.132,3.45,0.5841799682232264,0.0,0.8116241523800966,-0.0,1.0,0.0,1.0,1.0,1.0, 1.0
559,0.0228,0.132,3.45,0.132,3.45,0.6210475325606861,0.0,0.7837729022492953,-0.0,1.0,0.0,1.0,1.0,1.0, 1.0
560,0.0228,0.132,3.45,0.132,3.45,0.6565463541319836,0.0,0.7542856785568713,-0.0,1.0,0.0,1.0,1.0,1.0, 1.0
561,0.0228,0.132,3.45,0.132,3.45,0.6906184406290421,0.0,0.7232193093820922,-0.0,1.0,0.0,1.0,1.0,1.0, 1.0
562,0.0228,0.132,3.45,0.132,3.45,0.02302174007816759,0.0,0.9997349646200103,-0.0,1.0,0.0,1.0,1.0,1.0, 1.0
563,0.0228,0.132,3.45,0.132,3.45,0.06907209506493828,0.0,0.9976116707834467,-0.0,1.0,0.0,1.0,1.0,1.0, 1.0
564,0.0228,0.132,3.45,0.132,3.45,0.11501303431537233,0.0,0.9933639826053544,-0.0,1.0,0.0,1.0,1.0,1.0, 1.0
565,0.0228,0.132,3.45,0.132,3.45,0.16073094855594716,0.0,0.9869982584464398,-0.0,1.0,0.0,1.0,1.0,1.0, 1.0
566,0.0228,0.132,3.45,0.132,3.45,0.20612716545234946,0.0,0.9785252125840089,-0.0,1.0,0.0,1.0,1.0,1.0, 1.0
567,0.0228,0.132,3.45,0.132,3.45,0.25110754923422185,0.0,0.9679591926923277,-0.0,1.0,0.0,1.0,1.0,1.0, 1.0
568,0.0228,0.132,3.45,0.132,3.45,0.29556769796736154,0.0,0.9553217970497033,-0.0,1.0,0.0,1.0,1.0,1.0, 1.0
569,0.0228,0.132,3.45,0.132,3.45,0.33940815152028636,0.0,0.9406392011188893,-0.0,1.0,0.0,1.0,1.0,1.0, 1.0
570,0.0228,0.132,3.45,0.132,3.45,0.38253075646427487,0.0,0.9239427581613862,-0.0,1.0,0.0,1.0,1.0,1.0, 1.0
571,0.0228,0.132,3.45,0.132,3.45,0.4248428257012174,0.0,0.9052671282280191,-0.0,1.0,0.0,1.0,1.0,1.0, 1.0
572,0.0228,0.132,3.45,0.132,3.45,0.4662512001585441,0.0,0.8846523714718212,-0.0,1.0,0.0,1.0,1.0,1.0, 1.0
573,0.0228,0.132,3.45,0.132,3.45,0.5066512185153592,0.0,0.8621511136552001,-0.0,1.0,0.0,1.0,1.0,1.0, 1.0
574,0.0228,0.132,3.45,0.132,3.45,0.5459537795996737,0.0,0.8378152961965013,-0.0,1.0,0.0,1.0,1.0,1.0, 1.0
575,0.0228,0.132,3.45,0.132,3.45,0.5840834136226093,0.0,0.8116936404401356,-0.0,1.0,0.0,1.0,1.0,1.0, 1.0
576,0.0228,0.132,3.45,0.132,3.45,0.6209528621991489,0.0,0.7838479080323457,-0.0,1.0,0.0,1.0,1.0,1.0, 1.0
577,0.0228,0.132,3.45,0.132,3.45,0.6564772442373482,0.0,0.7543458277199768,-0.0,1.0,0.0,1.0,1.0,1.0, 1.0
578,0.0228,0.132,3.45,0.132,3.45,0.6905947877572527,0.0,0.7232418953037186,-0.0,1.0,0.0,1.0,1.0,1.0, 1.0
579,0.0228,0.132,3.45,0.132,3.45,0.02411705358431638,0.0,0.9997091415638906,-0.0,1.0,0.0,1.0,1.0,1.0, 1.0
580,0.0228,0.132,3.45,0.132,3.45,0.07269531590231502,0.0,0.9973541953818928,-0.0,1.0,0.0,1.0,1.0,1.0, 1.0
581,0.0228,0.132,3.45,0.132,3.45,0.1214862540617464,0.0,0.9925931140573385,-0.0,1.0,0.0,1.0,1.0,1.0, 1.0
582,0.0228,0.132,3.45,0.132,3.45,0.17031460598203366,0.0,0.9853897376110554,-0.0,1.0,0.0,1.0,1.0,1.0, 1.0
583,0.0228,0.132,3.45,0.132,3.45,0.21902192015405145,0.0,0.975719938554108,-0.0,1.0,0.0,1.0,1.0,1.0, 1.0
584,0.0228,0.132,3.45,0.132,3.45,0.2674142306134898,0.0,0.9635816671488698,-0.0,1.0,0.0,1.0,1.0,1.0, 1.0
585,0.0228,0.132,3.45,0.132,3.45,0.31525576346029904,0.0,0.9490067458164162,-0.0,1.0,0.0,1.0,1.0,1.0, 1.0
586,0.0228,0.132,3.45,0.132,3.45,0.3622963277147796,0.0,0.9320629651071783,-0.0,1.0,0.0,1.0,1.0,1.0, 1.0
587,0.0228,0.132,3.45,0.132,3.45,0.40827385632916074,0.0,0.9128594953431309,-0.0,1.0,0.0,1.0,1.0,1.0, 1.0
588,0.0228,0.132,3.45,0.132,3.45,0.45290744403948496,0.0,0.891557540001553,-0.0,1.0,0.0,1.0,1.0,1.0, 1.0
589,0.0228,0.132,3.45,0.132,3.45,0.49590831052020384,0.0,0.8683748888337324,-0.0,1.0,0.0,1.0,1.0,1.0, 1.0
590,0.0228,0.132,3.45,0.132,3.45,0.5369850884175684,0.0,0.8435917346780825,-0.0,1.0,0.0,1.0,1.0,1.0, 1.0
591,0.0228,0.132,3.45,0.132,3.45,0.5757999412027824,0.0,0.8175906235463273,-0.0,1.0,0.0,1.0,1.0,1.0, 1.0
592,0.0228,0.132,3.45,0.132,3.45,0.6119329034173396,0.0,0.7909096798719971,-0.0,1.0,0.0,1.0,1.0,1.0, 1.0
593,0.0228,0.132,3.45,0.132,3.45,0.6448175996323758,0.0,0.7643364855901758,-0.0,1.0,0.0,1.0,1.0,1.0, 1.0
594,0.0228,0.132,3.45,0.132,3.45,0.6736007702714358,0.0,0.7390953945802451,-0.0,1.0,0.0,1.0,1.0,1.0, 1.0
595,0.0228,0.132,3.45,0.132,3.45,0.6970174459084568,0.0,0.7170541681764716,-0.0,1.0,0.0,1.0,1.0,1.0, 1.0
596,0.0228,0.132,3.45,0.132,3.45,0.02326655608285663,0.0,0.9997292970439765,-0.0,1.0,0.0,1.0,1.0,1.0, 1.0
597,0.0228,0.132,3.45,0.132,3.45,0.07012742831664541,0.0,0.9975380412784738,-0.0,1.0,0.0,1.0,1.0,1.0, 1.0
598,0.0228,0.132,3.45,0.132,3.45,0.11725597344626597,0.0,0.9931017252483093,-0.0,1.0,0.0,1.0,1.0,1.0, 1.0
599,0.0228,0.132,3.45,0.132,3.45,0.16452747390116043,0.0,0.9863725007986096,-0.0,1.0,0.0,1.0,1.0,1.0, 1.0
600,0.0228,0.132,3.45,0.132,3.45,0.2118152350598703,0.0,0.9773097288968998,-0.0,1.0,0.0,1.0,1.0,1.0, 1.0
601,0.0228,0.132,3.45,0.132,3.45,0.2589470115728259,0.0,0.9658915286912412,-0.0,1.0,0.0,1.0,1.0,1.0, 1.0
602,0.0228,0.132,3.45,0.132,3.45,0.30570511546130724,0.0,0.952126242880002,-0.0,1.0,0.0,1.0,1.0,1.0, 1.0
603,0.0228,0.132,3.45,0.132,3.45,0.35185356228673953,0.0,0.9360550575185903,-0.0,1.0,0.0,1.0,1.0,1.0, 1.0
604,0.0228,0.132,3.45,0.132,3.45,0.3971391556524046,0.0,0.9177584055990416,-0.0,1.0,0.0,1.0,1.0,1.0, 1.0
605,0.0228,0.132,3.45,0.132,3.45,0.44129069847878694,0.0,0.897364206683164,-0.0,1.0,0.0,1.0,1.0,1.0, 1.0
606,0.0228,0.132,3.45,0.132,3.45,0.4840363955849952,0.0,0.8750478659759626,-0.0,1.0,0.0,1.0,1.0,1.0, 1.0
607,0.0228,0.132,3.45,0.132,3.45,0.525095829490795,0.0,0.8510431069290051,-0.0,1.0,0.0,1.0,1.0,1.0, 1.0
608,0.0228,0.132,3.45,0.132,3.45,0.5641713187362393,0.0,0.825657751804834,-0.0,1.0,0.0,1.0,1.0,1.0, 1.0
609,0.0228,0.132,3.45,0.132,3.45,0.6009432788294292,0.0,0.7992916711875176,-0.0,1.0,0.0,1.0,1.0,1.0, 1.0
610,0.0228,0.132,3.45,0.132,3.45,0.6350463913770114,0.0,0.7724740000796375,-0.0,1.0,0.0,1.0,1.0,1.0, 1.0
611,0.0228,0.132,3.45,0.132,3.45,0.6661144856730695,0.0,0.7458495102743598,-0.0,1.0,0.0,1.0,1.0,1.0, 1.0
612,0.0228,0.132,3.45,0.132,3.45,0.6940444487128543,0.0,0.7199321518107594,-0.0,1.0,0.0,1.0,1.0,1.0, 1.0
613,0.0228,0.132,3.45,0.132,3.45,0.02277139782832774,0.0,0.9997406981017348,-0.0,1.0,0.0,1.0,1.0,1.0, 1.0
614,0.0228,0.132,3.45,0.132,3.45,0.06861423315805516,0.0,0.9976432664074528,-0.0,1.0,0.0,1.0,1.0,1.0, 1.0
615,0.0228,0.132,3.45,0.132,3.45,0.11474366120713994,0.0,0.9933951339788116,-0.0,1.0,0.0,1.0,1.0,1.0, 1.0
616,0.0228,0.132,3.45,0.132,3.45,0.16107033056162626,0.0,0.986942930778051,-0.0,1.0,0.0,1.0,1.0,1.0, 1.0
617,0.0228,0.132,3.45,0.132,3.45,0.20748384362509834,0.0,0.9782384446721339,-0.0,1.0,0.0,1.0,1.0,1.0, 1.0
618,0.0228,0.132,3.45,0.132,3.45,0.25382489567969324,0.0,0.9672501860083528,-0.0,1.0,0.0,1.0,1.0,1.0, 1.0
619,0.0228,0.132,3.45,0.132,3.45,0.2998917814240371,0.0,0.9539732278393969,-0.0,1.0,0.0,1.0,1.0,1.0, 1.0
620,0.0228,0.132,3.45,0.132,3.45,0.3454579798871188,0.0,0.9384342193954305,-0.0,1.0,0.0,1.0,1.0,1.0, 1.0
621,0.0228,0.132,3.45,0.132,3.45,0.3902818026713598,0.0,0.9206954515493133,-0.0,1.0,0.0,1.0,1.0,1.0, 1.0
622,0.0228,0.132,3.45,0.132,3.45,0.4341047704855394,0.0,0.9008623914015376,-0.0,1.0,0.0,1.0,1.0,1.0, 1.0
623,0.0228,0.132,3.45,0.132,3.45,0.476677003494068,0.0,0.879078514320488,-0.0,1.0,0.0,1.0,1.0,1.0, 1.0
624,0.0228,0.132,3.45,0.132,3.45,0.5177400108351895,0.0,0.8555380068590629,-0.0,1.0,0.0,1.0,1.0,1.0, 1.0
625,0.0228,0.132,3.45,0.132,3.45,0.5570307820143157,0.0,0.8304918469729369,-0.0,1.0,0.0,1.0,1.0,1.0, 1.0
626,0.0228,0.132,3.45,0.132,3.45,0.5943151664296606,0.0,0.8042322319776078,-0.0,1.0,0.0,1.0,1.0,1.0, 1.0
627,0.0228,0.132,3.45,0.132,3.45,0.629371869347782,0.0,0.7771042723300898,-0.0,1.0,0.0,1.0,1.0,1.0, 1.0
628,0.0228,0.132,3.45,0.132,3.45,0.6620743048880271,0.0,0.7494381994581246,-0.0,1.0,0.0,1.0,1.0,1.0, 1.0
629,0.0228,0.132,3.45,0.132,3.45,0.6925503604614591,0.0,0.7213695295926374,-0.0,1.0,0.0,1.0,1.0,1.0, 1.0
630,0.0228,0.132,3.45,0.132,3.45,0.022510217590009877,0.0,0.9997466129495266,-0.0,1.0,0.0,1.0,1.0,1.0, 1.0
631,0.0228,0.132,3.45,0.132,3.45,0.06780028343868122,0.0,0.9976989132827772,-0.0,1.0,0.0,1.0,1.0,1.0, 1.0
632,0.0228,0.132,3.45,0.132,3.45,0.11337401849034906,0.0,0.9935523800642571,-0.0,1.0,0.0,1.0,1.0,1.0, 1.0
633,0.0228,0.132,3.45,0.132,3.45,0.15916405441226444,0.0,0.9872521480265565,-0.0,1.0,0.0,1.0,1.0,1.0, 1.0
634,0.0228,0.132,3.45,0.132,3.45,0.20506745164439563,0.0,0.9787478430505344,-0.0,1.0,0.0,1.0,1.0,1.0, 1.0
635,0.0228,0.132,3.45,0.132,3.45,0.2509332831056363,0.0,0.9680043839930822,-0.0,1.0,0.0,1.0,1.0,1.0, 1.0
636,0.0228,0.132,3.45,0.132,3.45,0.296574539766293,0.0,0.9550097079938045,-0.0,1.0,0.0,1.0,1.0,1.0, 1.0
637,0.0228,0.132,3.45,0.132,3.45,0.34177559081507575,0.0,0.9397815945862134,-0.0,1.0,0.0,1.0,1.0,1.0, 1.0
638,0.0228,0.132,3.45,0.132,3.45,0.38630187408935623,0.0,0.9223724096453942,-0.0,1.0,0.0,1.0,1.0,1.0, 1.0
639,0.0228,0.132,3.45,0.132,3.45,0.4299080192254469,0.0,0.9028726903642911,-0.0,1.0,0.0,1.0,1.0,1.0, 1.0
640,0.0228,0.132,3.45,0.132,3.45,0.47236197918991824,0.0,0.8814046520275367,-0.0,1.0,0.0,1.0,1.0,1.0, 1.0
641,0.0228,0.132,3.45,0.132,3.45,0.5134341464435191,0.0,0.8581289980334046,-0.0,1.0,0.0,1.0,1.0,1.0, 1.0
642,0.0228,0.132,3.45,0.132,3.45,0.5528890526497139,0.0,0.833254880249796,-0.0,1.0,0.0,1.0,1.0,1.0, 1.0
643,0.0228,0.132,3.45,0.132,3.45,0.5905333602541145,0.0,0.8070132281610906,-0.0,1.0,0.0,1.0,1.0,1.0, 1.0
644,0.0228,0.132,3.45,0.132,3.45,0.62623156625208,0.0,0.779637111372635,-0.0,1.0,0.0,1.0,1.0,1.0, 1.0
645,0.0228,0.132,3.45,0.132,3.45,0.6599395838808636,0.0,0.7513186711556904,-0.0,1.0,0.0,1.0,1.0,1.0, 1.0
646,0.0228,0.132,3.45,0.132,3.45,0.6917888530114401,0.0,0.7220998427150611,-0.0,1.0,0.0,1.0,1.0,1.0, 1.0
647,0.0228,0.132,3.45,0.132,3.45,0.02238812927238308,0.0,0.9997493544222388,-0.0,1.0,0.0,1.0,1.0,1.0, 1.0
648,0.0228,0.132,3.45,0.132,3.45,0.06740989228518178,0.0,0.9977253662316601,-0.0,1.0,0.0,1.0,1.0,1.0, 1.0
649,0.0228,0.132,3.45,0.132,3.45,0.11269946771753281,0.0,0.9936291209380815,-0.0,1.0,0.0,1.0,1.0,1.0, 1.0
650,0.0228,0.132,3.45,0.132,3.45,0.15819944729215712,0.0,0.9874071778534202,-0.0,1.0,0.0,1.0,1.0,1.0, 1.0
651,0.0228,0.132,3.45,0.132,3.45,0.2038157095464499,0.0,0.979009272960209,-0.0,1.0,0.0,1.0,1.0,1.0, 1.0
652,0.0228,0.132,3.45,0.132,3.45,0.24940237309966456,0.0,0.9683999464540751,-0.0,1.0,0.0,1.0,1.0,1.0, 1.0
653,0.0228,0.132,3.45,0.132,3.45,0.29477910022943776,0.0,0.9555654253204869,-0.0,1.0,0.0,1.0,1.0,1.0, 1.0
654,0.0228,0.132,3.45,0.132,3.45,0.3397438713172376,0.0,0.9405179965861239,-0.0,1.0,0.0,1.0,1.0,1.0, 1.0
655,0.0228,0.132,3.45,0.132,3.45,0.3840688505425151,0.0,0.9233044557690334,-0.0,1.0,0.0,1.0,1.0,1.0, 1.0
656,0.0228,0.132,3.45,0.132,3.45,0.42752305646256983,0.0,0.9040044447860321,-0.0,1.0,0.0,1.0,1.0,1.0, 1.0
657,0.0228,0.132,3.45,0.132,3.45,0.4698924453991375,0.0,0.8827236768982798,-0.0,1.0,0.0,1.0,1.0,1.0, 1.0
658,0.0228,0.132,3.45,0.132,3.45,0.5109615355282114,0.0,0.8596035767786524,-0.0,1.0,0.0,1.0,1.0,1.0, 1.0
659,0.0228,0.132,3.45,0.132,3.45,0.5505184001999401,0.0,0.8348230297741543,-0.0,1.0,0.0,1.0,1.0,1.0, 1.0
660,0.0228,0.132,3.45,0.132,3.45,0.5884008989094519,0.0,0.80856934282877,-0.0,1.0,0.0,1.0,1.0,1.0, 1.0
661,0.0228,0.132,3.45,0.132,3.45,0.6245017036591552,0.0,0.7810234453118631,-0.0,1.0,0.0,1.0,1.0,1.0, 1.0
662,0.0228,0.132,3.45,0.132,3.45,0.6587952200778139,0.0,0.7523223099195082,-0.0,1.0,0.0,1.0,1.0,1.0, 1.0
663,0.0228,0.132,3.45,0.132,3.45,0.6913889551461736,0.0,0.7224827421481306,-0.0,1.0,0.0,1.0,1.0,1.0, 1.0
664,0.0228,0.132,3.45,0.132,3.45,0.022343998275116014,0.0,0.9997503417059088,-0.0,1.0,0.0,1.0,1.0,1.0, 1.0
665,0.0228,0.132,3.45,0.132,3.45,0.06726022313505291,0.0,0.9977354671373685,-0.0,1.0,0.0,1.0,1.0,1.0, 1.0
666,0.0228,0.132,3.45,0.132,3.45,0.11242517129612489,0.0,0.993660193858563,-0.0,1.0,0.0,1.0,1.0,1.0, 1.0
667,0.0228,0.132,3.45,0.132,3.45,0.15778307865358798,0.0,0.9874737971665859,-0.0,1.0,0.0,1.0,1.0,1.0, 1.0
668,0.0228,0.132,3.45,0.132,3.45,0.20324018415936362,0.0,0.9791289126273761,-0.0,1.0,0.0,1.0,1.0,1.0, 1.0
669,0.0228,0.132,3.45,0.132,3.45,0.24865905581458286,0.0,0.9685910767508651,-0.0,1.0,0.0,1.0,1.0,1.0, 1.0
670,0.0228,0.132,3.45,0.132,3.45,0.2938668885169987,0.0,0.9558463536747619,-0.0,1.0,0.0,1.0,1.0,1.0, 1.0
671,0.0228,0.132,3.45,0.132,3.45,0.33866566228642403,0.0,0.9409067802859632,-0.0,1.0,0.0,1.0,1.0,1.0, 1.0
672,0.0228,0.132,3.45,0.132,3.45,0.3828424239807225,0.0,0.9238136599989007,-0.0,1.0,0.0,1.0,1.0,1.0, 1.0
673,0.0228,0.132,3.45,0.132,3.45,0.4261825856631328,0.0,0.9046371668671846,-0.0,1.0,0.0,1.0,1.0,1.0, 1.0
674,0.0228,0.132,3.45,0.132,3.45,0.4684781923102378,0.0,0.8834750609551647,-0.0,1.0,0.0,1.0,1.0,1.0, 1.0
675,0.0228,0.132,3.45,0.132,3.45,0.5095280879343171,0.0,0.8604540241093644,-0.0,1.0,0.0,1.0,1.0,1.0, 1.0
676,0.0228,0.132,3.45,0.132,3.45,0.5491427071546995,0.0,0.8357285966022748,-0.0,1.0,0.0,1.0,1.0,1.0, 1.0
677,0.0228,0.132,3.45,0.132,3.45,0.5871714422787793,0.0,0.8094625978834714,-0.0,1.0,0.0,1.0,1.0,1.0, 1.0
678,0.0228,0.132,3.45,0.132,3.45,0.6235156879124628,0.0,0.7818108383279476,-0.0,1.0,0.0,1.0,1.0,1.0, 1.0
679,0.0228,0.132,3.45,0.132,3.45,0.6581549808527997,0.0,0.7528824750109746,-0.0,1.0,0.0,1.0,1.0,1.0, 1.0
680,0.0228,0.132,3.45,0.132,3.45,0.6911677016542929,0.0,0.7226944085780118,-0.0,1.0,0.0,1.0,1.0,1.0, 1.0
681,0.0228,0.132,3.45,0.132,3.45,0.022342648039753218,0.0,0.9997503718821873,-0.0,1.0,0.0,1.0,1.0,1.0, 1.0
682,0.0228,0.132,3.45,0.132,3.45,0.06724599796716826,0.0,0.997736425995062,-0.0,1.0,0.0,1.0,1.0,1.0, 1.0
683,0.0228,0.132,3.45,0.132,3.45,0.11237800669871038,0.0,0.9936655290440665,-0.0,1.0,0.0,1.0,1.0,1.0, 1.0
684,0.0228,0.132,3.45,0.132,3.45,0.15767646134169866,0.0,0.987490827065629,-0.0,1.0,0.0,1.0,1.0,1.0, 1.0
685,0.0228,0.132,3.45,0.132,3.45,0.203049058988867,0.0,0.9791685654899955,-0.0,1.0,0.0,1.0,1.0,1.0, 1.0
686,0.0228,0.132,3.45,0.132,3.45,0.24836178195620165,0.0,0.9686673449970016,-0.0,1.0,0.0,1.0,1.0,1.0, 1.0
687,0.0228,0.132,3.45,0.132,3.45,0.29344913136326034,0.0,0.9559746896765353,-0.0,1.0,0.0,1.0,1.0,1.0, 1.0
688,0.0228,0.132,3.45,0.132,3.45,0.3381234762363071,0.0,0.9411017558255194,-0.0,1.0,0.0,1.0,1.0,1.0, 1.0
689,0.0228,0.132,3.45,0.132,3.45,0.38218356800375825,0.0,0.9240864247179031,-0.0,1.0,0.0,1.0,1.0,1.0, 1.0
690,0.0228,0.132,3.45,0.132,3.45,0.42542655677893715,0.0,0.9049929528936774,-0.0,1.0,0.0,1.0,1.0,1.0, 1.0
691,0.0228,0.132,3.45,0.132,3.45,0.46765088691885737,0.0,0.8839132581673419,-0.0,1.0,0.0,1.0,1.0,1.0, 1.0
692,0.0228,0.132,3.45,0.132,3.45,0.508666875194334,0.0,0.8609634197107515,-0.0,1.0,0.0,1.0,1.0,1.0, 1.0
693,0.0228,0.132,3.45,0.132,3.45,0.5483042714116699,0.0,0.83627891636207,-0.0,1.0,0.0,1.0,1.0,1.0, 1.0
694,0.0228,0.132,3.45,0.132,3.45,0.5864201620967207,0.0,0.8100070329857982,-0.0,1.0,0.0,1.0,1.0,1.0, 1.0
695,0.0228,0.132,3.45,0.132,3.45,0.6229189633296716,0.0,0.7822863702789966,-0.0,1.0,0.0,1.0,1.0,1.0, 1.0
696,0.0228,0.132,3.45,0.132,3.45,0.6577765764493042,0.0,0.7532131009711878,-0.0,1.0,0.0,1.0,1.0,1.0, 1.0
697,0.0228,0.132,3.45,0.132,3.45,0.6910403812652024,0.0,0.7228161532926917,-0.0,1.0,0.0,1.0,1.0,1.0, 1.0
698,0.0228,0.132,3.45,0.132,3.45,0.022365256702490333,0.0,0.9997498663628976,-0.0,1.0,0.0,1.0,1.0,1.0, 1.0
699,0.0228,0.132,3.45,0.132,3.45,0.06730791083852378,0.0,0.9977322512270279,-0.0,1.0,0.0,1.0,1.0,1.0, 1.0
700,0.0228,0.132,3.45,0.132,3.45,0.1124578751275898,0.0,0.9936564931211326,-0.0,1.0,0.0,1.0,1.0,1.0, 1.0
701,0.0228,0.132,3.45,0.132,3.45,0.1577434178298192,0.0,0.987480133537565,-0.0,1.0,0.0,1.0,1.0,1.0, 1.0
702,0.0228,0.132,3.45,0.132,3.45,0.20307337372729148,0.0,0.9791635230557845,-0.0,1.0,0.0,1.0,1.0,1.0, 1.0
703,0.0228,0.132,3.45,0.132,3.45,0.24831626863808234,0.0,0.9686790132596348,-0.0,1.0,0.0,1.0,1.0,1.0, 1.0
704,0.0228,0.132,3.45,0.132,3.45,0.2933109652246612,0.0,0.9560170906835178,-0.0,1.0,0.0,1.0,1.0,1.0, 1.0
705,0.0228,0.132,3.45,0.132,3.45,0.33787945340587633,0.0,0.9411893937811594,-0.0,1.0,0.0,1.0,1.0,1.0, 1.0
706,0.0228,0.132,3.45,0.132,3.45,0.38183565564560823,0.0,0.9242302375910931,-0.0,1.0,0.0,1.0,1.0,1.0, 1.0
707,0.0228,0.132,3.45,0.132,3.45,0.42498834492000065,0.0,0.9051988216310043,-0.0,1.0,0.0,1.0,1.0,1.0, 1.0
708,0.0228,0.132,3.45,0.132,3.45,0.46713897337744487,0.0,0.884183905956146,-0.0,1.0,0.0,1.0,1.0,1.0, 1.0
709,0.0228,0.132,3.45,0.132,3.45,0.5081107204966975,0.0,0.8612917599259423,-0.0,1.0,0.0,1.0,1.0,1.0, 1.0
710,0.0228,0.132,3.45,0.132,3.45,0.5477497213681787,0.0,0.8366422429814806,-0.0,1.0,0.0,1.0,1.0,1.0, 1.0
711,0.0228,0.132,3.45,0.132,3.45,0.5859172276150161,0.0,0.8103709042061749,-0.0,1.0,0.0,1.0,1.0,1.0, 1.0
712,0.0228,0.132,3.45,0.132,3.45,0.622523012163485,0.0,0.7826014945851442,-0.0,1.0,0.0,1.0,1.0,1.0, 1.0
713,0.0228,0.132,3.45,0.132,3.45,0.657523749594591,0.0,0.7534338184068124,-0.0,1.0,0.0,1.0,1.0,1.0, 1.0
714,0.0228,0.132,3.45,0.132,3.45,0.6909523401935591,0.0,0.7229003137231607,-0.0,1.0,0.0,1.0,1.0,1.0, 1.0
715,0.0228,0.132,3.45,0.132,3.45,0.022402632167804252,0.0,0.9997490295428919,-0.0,1.0,0.0,1.0,1.0,1.0, 1.0
716,0.0228,0.132,3.45,0.132,3.45,0.06741332280315851,0.0,0.997725134447678,-0.0,1.0,0.0,1.0,1.0,1.0, 1.0
717,0.0228,0.132,3.45,0.132,3.45,0.1126094101474596,0.0,0.9936393313200929,-0.0,1.0,0.0,1.0,1.0,1.0, 1.0
718,0.0228,0.132,3.45,0.132,3.45,0.15791053618205614,0.0,0.9874534229839378,-0.0,1.0,0.0,1.0,1.0,1.0, 1.0
719,0.0228,0.132,3.45,0.132,3.45,0.2032185013072859,0.0,0.9791334131396091,-0.0,1.0,0.0,1.0,1.0,1.0, 1.0
720,0.0228,0.132,3.45,0.132,3.45,0.2484100213492795,0.0,0.9686549753618419,-0.0,1.0,0.0,1.0,1.0,1.0, 1.0
721,0.0228,0.132,3.45,0.132,3.45,0.2933312814546514,0.0,0.9560108573233738,-0.0,1.0,0.0,1.0,1.0,1.0, 1.0
722,0.0228,0.132,3.45,0.132,3.45,0.33780605730768504,0.0,0.9412157391619824,-0.0,1.0,0.0,1.0,1.0,1.0, 1.0
723,0.0228,0.132,3.45,0.132,3.45,0.381665408692946,0.0,0.9243005549101692,-0.0,1.0,0.0,1.0,1.0,1.0, 1.0
724,0.0228,0.132,3.45,0.132,3.45,0.42472683774894776,0.0,0.905321552430836,-0.0,1.0,0.0,1.0,1.0,1.0, 1.0
725,0.0228,0.132,3.45,0.132,3.45,0.4668015945515522,0.0,0.8843620702654135,-0.0,1.0,0.0,1.0,1.0,1.0, 1.0
726,0.0228,0.132,3.45,0.132,3.45,0.5077257054815335,0.0,0.8615187798262316,-0.0,1.0,0.0,1.0,1.0,1.0, 1.0
727,0.0228,0.132,3.45,0.132,3.45,0.5473535732872606,0.0,0.836901467204872,-0.0,1.0,0.0,1.0,1.0,1.0, 1.0
728,0.0228,0.132,3.45,0.132,3.45,0.5855465919906108,0.0,0.8106387534581487,-0.0,1.0,0.0,1.0,1.0,1.0, 1.0
729,0.0228,0.132,3.45,0.132,3.45,0.6222232999591619,0.0,0.7828398079990125,-0.0,1.0,0.0,1.0,1.0,1.0, 1.0
730,0.0228,0.132,3.45,0.132,3.45,0.6573297451181892,0.0,0.753603082652172,-0.0,1.0,0.0,1.0,1.0,1.0, 1.0
731,0.0228,0.132,3.45,0.132,3.45,0.6908851394387541,0.0,0.7229645386204592,-0.0,1.0,0.0,1.0,1.0,1.0, 1.0
732,0.0228,0.132,3.45,0.132,3.45,0.02244909440389869,0.0,0.9997479873250282,-0.0,1.0,0.0,1.0,1.0,1.0, 1.0
733,0.0228,0.132,3.45,0.132,3.45,0.067546008600466,0.0,0.9977161603994124,-0.0,1.0,0.0,1.0,1.0,1.0, 1.0
734,0.0228,0.132,3.45,0.132,3.45,0.11280526622890967,0.0,0.9936171153472674,-0.0,1.0,0.0,1.0,1.0,1.0, 1.0
735,0.0228,0.132,3.45,0.132,3.45,0.1581368410700309,0.0,0.9874172064008161,-0.0,1.0,0.0,1.0,1.0,1.0, 1.0
736,0.0228,0.132,3.45,0.132,3.45,0.20343892512862422,0.0,0.9790876384382095,-0.0,1.0,0.0,1.0,1.0,1.0, 1.0
737,0.0228,0.132,3.45,0.132,3.45,0.2485878680053313,0.0,0.9686093494699316,-0.0,1.0,0.0,1.0,1.0,1.0, 1.0
738,0.0228,0.132,3.45,0.132,3.45,0.2934396474257179,0.0,0.9559776008456843,-0.0,1.0,0.0,1.0,1.0,1.0, 1.0
739,0.0228,0.132,3.45,0.132,3.45,0.3378323220066023,0.0,0.9412063122438287,-0.0,1.0,0.0,1.0,1.0,1.0, 1.0
740,0.0228,0.132,3.45,0.132,3.45,0.3815997709247591,0.0,0.924327655558445,-0.0,1.0,0.0,1.0,1.0,1.0, 1.0
741,0.0228,0.132,3.45,0.132,3.45,0.42457033600571414,0.0,0.9053949578962736,-0.0,1.0,0.0,1.0,1.0,1.0, 1.0
742,0.0228,0.132,3.45,0.132,3.45,0.46657021999897813,0.0,0.8844841602935042,-0.0,1.0,0.0,1.0,1.0,1.0, 1.0
743,0.0228,0.132,3.45,0.132,3.45,0.5074404374501384,0.0,0.8616868354805081,-0.0,1.0,0.0,1.0,1.0,1.0, 1.0
744,0.0228,0.132,3.45,0.132,3.45,0.5470456581649034,0.0,0.837102770203831,-0.0,1.0,0.0,1.0,1.0,1.0, 1.0
745,0.0228,0.132,3.45,0.132,3.45,0.5852542624272542,0.0,0.8108498309247716,-0.0,1.0,0.0,1.0,1.0,1.0, 1.0
746,0.0228,0.132,3.45,0.132,3.45,0.6219800224678124,0.0,0.7830331101881577,-0.0,1.0,0.0,1.0,1.0,1.0, 1.0
747,0.0228,0.132,3.45,0.132,3.45,0.6571734553581989,0.0,0.7537393777510667,-0.0,1.0,0.0,1.0,1.0,1.0, 1.0
748,0.0228,0.132,3.45,0.132,3.45,0.6908349434674957,0.0,0.7230125039612121,-0.0,1.0,0.0,1.0,1.0,1.0, 1.0
749,0.0228,0.132,3.45,0.132,3.45,0.022500921861402793,0.0,0.9997468222081964,-0.0,1.0,0.0,1.0,1.0,1.0, 1.0
750,0.0228,0.132,3.45,0.132,3.45,0.06769698171327308,0.0,0.9977059279501714,-0.0,1.0,0.0,1.0,1.0,1.0, 1.0
751,0.0228,0.132,3.45,0.132,3.45,0.11303202910476395,0.0,0.993591344767284,-0.0,1.0,0.0,1.0,1.0,1.0, 1.0
752,0.0228,0.132,3.45,0.132,3.45,0.15840373422864418,0.0,0.9873744259309236,-0.0,1.0,0.0,1.0,1.0,1.0, 1.0
753,0.0228,0.132,3.45,0.132,3.45,0.20370769317399123,0.0,0.9790317542050059,-0.0,1.0,0.0,1.0,1.0,1.0, 1.0
754,0.0228,0.132,3.45,0.132,3.45,0.24882154141345225,0.0,0.9685493485252229,-0.0,1.0,0.0,1.0,1.0,1.0, 1.0
755,0.0228,0.132,3.45,0.132,3.45,0.2936092686083552,0.0,0.9559255187446702,-0.0,1.0,0.0,1.0,1.0,1.0, 1.0
756,0.0228,0.132,3.45,0.132,3.45,0.33792116919971893,0.0,0.9411744171016843,-0.0,1.0,0.0,1.0,1.0,1.0, 1.0
757,0.0228,0.132,3.45,0.132,3.45,0.3815972130263532,0.0,0.9243287115580258,-0.0,1.0,0.0,1.0,1.0,1.0, 1.0
758,0.0228,0.132,3.45,0.132,3.45,0.42447775664572346,0.0,0.9054383657174098,-0.0,1.0,0.0,1.0,1.0,1.0, 1.0
759,0.0228,0.132,3.45,0.132,3.45,0.4664008749516194,0.0,0.8845734700093395,-0.0,1.0,0.0,1.0,1.0,1.0, 1.0
760,0.0228,0.132,3.45,0.132,3.45,0.5072137271847008,0.0,0.8618203031696363,-0.0,1.0,0.0,1.0,1.0,1.0, 1.0
761,0.0228,0.132,3.45,0.132,3.45,0.5467922035978,0.0,0.8372683477145556,-0.0,1.0,0.0,1.0,1.0,1.0, 1.0
762,0.0228,0.132,3.45,0.132,3.45,0.5850097486457171,0.0,0.8110262597409994,-0.0,1.0,0.0,1.0,1.0,1.0, 1.0
763,0.0228,0.132,3.45,0.132,3.45,0.6217731406058427,0.0,0.783197396331951,-0.0,1.0,0.0,1.0,1.0,1.0, 1.0
764,0.0228,0.132,3.45,0.132,3.45,0.6570372259065167,0.0,0.7538581323916781,-0.0,1.0,0.0,1.0,1.0,1.0, 1.0
765,0.0228,0.132,3.45,0.132,3.45,0.6907894018924889,0.0,0.7230560159718039,-0.0,1.0,0.0,1.0,1.0,1.0, 1.0
766,0.0228,0.132,3.45,0.132,3.45,0.02255772672977447,0.0,0.9997455421079829,-0.0,1.0,0.0,1.0,1.0,1.0, 1.0
767,0.0228,0.132,3.45,0.132,3.45,0.06786334430253346,0.0,0.99769462587511,-0.0,1.0,0.0,1.0,1.0,1.0, 1.0
768,0.0228,0.132,3.45,0.132,3.45,0.11328434266236223,0.0,0.993562608851378,-0.0,1.0,0.0,1.0,1.0,1.0, 1.0
769,0.0228,0.132,3.45,0.132,3.45,0.15870431760958226,0.0,0.9873261566331952,-0.0,1.0,0.0,1.0,1.0,1.0, 1.0
770,0.0228,0.132,3.45,0.132,3.45,0.20401462313651464,0.0,0.978967840915352,-0.0,1.0,0.0,1.0,1.0,1.0, 1.0
771,0.0228,0.132,3.45,0.132,3.45,0.24910067988930287,0.0,0.9684775946188362,-0.0,1.0,0.0,1.0,1.0,1.0, 1.0
772,0.0228,0.132,3.45,0.132,3.45,0.29383021737313564,0.0,0.9558576271382971,-0.0,1.0,0.0,1.0,1.0,1.0, 1.0
773,0.0228,0.132,3.45,0.132,3.45,0.3380609114490862,0.0,0.9411242320492088,-0.0,1.0,0.0,1.0,1.0,1.0, 1.0
774,0.0228,0.132,3.45,0.132,3.45,0.38164498594182356,0.0,0.9243089876796965,-0.0,1.0,0.0,1.0,1.0,1.0, 1.0
775,0.0228,0.132,3.45,0.132,3.45,0.4244330134225613,0.0,0.9054593403996912,-0.0,1.0,0.0,1.0,1.0,1.0, 1.0
776,0.0228,0.132,3.45,0.132,3.45,0.4662748920976955,0.0,0.8846398843593263,-0.0,1.0,0.0,1.0,1.0,1.0, 1.0
777,0.0228,0.132,3.45,0.132,3.45,0.5070299429535491,0.0,0.8619284407353783,-0.0,1.0,0.0,1.0,1.0,1.0, 1.0
778,0.0228,0.132,3.45,0.132,3.45,0.5465728863729731,0.0,0.8374115355557966,-0.0,1.0,0.0,1.0,1.0,1.0, 1.0
779,0.0228,0.132,3.45,0.132,3.45,0.5847892825030873,0.0,0.8111852409095744,-0.0,1.0,0.0,1.0,1.0,1.0, 1.0
780,0.0228,0.132,3.45,0.132,3.45,0.6215946070094444,0.0,0.783339099328493,-0.0,1.0,0.0,1.0,1.0,1.0, 1.0
781,0.0228,0.132,3.45,0.132,3.45,0.6569203850545146,0.0,0.7539599509919795,-0.0,1.0,0.0,1.0,1.0,1.0, 1.0
782,0.0228,0.132,3.45,0.132,3.45,0.6907481803384049,0.0,0.7230953957529963,-0.0,1.0,0.0,1.0,1.0,1.0, 1.0
783,0.0228,0.132,3.45,0.132,3.45,0.02262102709937498,0.0,0.9997441118271061,-0.0,1.0,0.0,1.0,1.0,1.0, 1.0
784,0.0228,0.132,3.45,0.132,3.45,0.06804797131195552,0.0,0.997682050354885,-0.0,1.0,0.0,1.0,1.0,1.0, 1.0
785,0.0228,0.132,3.45,0.132,3.45,0.11356281106032783,0.0,0.9935308188194649,-0.0,1.0,0.0,1.0,1.0,1.0, 1.0
786,0.0228,0.132,3.45,0.132,3.45,0.15903665984408355,0.0,0.9872726780508195,-0.0,1.0,0.0,1.0,1.0,1.0, 1.0
787,0.0228,0.132,3.45,0.132,3.45,0.20436051787177648,0.0,0.9788956934909763,-0.0,1.0,0.0,1.0,1.0,1.0, 1.0
788,0.0228,0.132,3.45,0.132,3.45,0.24942189948857427,0.0,0.9683949174048322,-0.0,1.0,0.0,1.0,1.0,1.0, 1.0
789,0.0228,0.132,3.45,0.132,3.45,0.2940941069187565,0.0,0.955776467734825,-0.0,1.0,0.0,1.0,1.0,1.0, 1.0
790,0.0228,0.132,3.45,0.132,3.45,0.33824537333914473,0.0,0.9410579511457636,-0.0,1.0,0.0,1.0,1.0,1.0, 1.0
791,0.0228,0.132,3.45,0.132,3.45,0.381737027886211,0.0,0.9242709784152061,-0.0,1.0,0.0,1.0,1.0,1.0, 1.0
792,0.0228,0.132,3.45,0.132,3.45,0.4244341919261093,0.0,0.9054587879765874,-0.0,1.0,0.0,1.0,1.0,1.0, 1.0
793,0.0228,0.132,3.45,0.132,3.45,0.46619514811966906,0.0,0.8846819111238116,-0.0,1.0,0.0,1.0,1.0,1.0, 1.0
794,0.0228,0.132,3.45,0.132,3.45,0.5068810234271252,0.0,0.8620160254249745,-0.0,1.0,0.0,1.0,1.0,1.0, 1.0
795,0.0228,0.132,3.45,0.132,3.45,0.5463845457950752,0.0,0.8375344339884238,-0.0,1.0,0.0,1.0,1.0,1.0, 1.0
796,0.0228,0.132,3.45,0.132,3.45,0.5845998863654225,0.0,0.8113217443539494,-0.0,1.0,0.0,1.0,1.0,1.0, 1.0
797,0.0228,0.132,3.45,0.132,3.45,0.6214324489249075,0.0,0.7834677475322084,-0.0,1.0,0.0,1.0,1.0,1.0, 1.0
798,0.0228,0.132,3.45,0.132,3.45,0.6568111867313342,0.0,0.7540550808691473,-0.0,1.0,0.0,1.0,1.0,1.0, 1.0
799,0.0228,0.132,3.45,0.132,3.45,0.6907112148812454,0.0,0.7231307057768145,-0.0,1.0,0.0,1.0,1.0,1.0, 1.0
800,0.0228,0.132,3.45,0.132,3.45,0.022693586649517795,0.0,0.9997424674009707,-0.0,1.0,0.0,1.0,1.0,1.0, 1.0
801,0.0228,0.132,3.45,0.132,3.45,0.06825534874315704,0.0,0.997667884302161,-0.0,1.0,0.0,1.0,1.0,1.0, 1.0
802,0.0228,0.132,3.45,0.132,3.45,0.11387150966341267,0.0,0.9934954852876662,-0.0,1.0,0.0,1.0,1.0,1.0, 1.0
803,0.0228,0.132,3.45,0.132,3.45,0.15940488515948034,0.0,0.987213291334397,-0.0,1.0,0.0,1.0,1.0,1.0, 1.0
804,0.0228,0.132,3.45,0.132,3.45,0.2047463433942768,0.0,0.9788150667346068,-0.0,1.0,0.0,1.0,1.0,1.0, 1.0
805,0.0228,0.132,3.45,0.132,3.45,0.24978371556785897,0.0,0.968301655186603,-0.0,1.0,0.0,1.0,1.0,1.0, 1.0
806,0.0228,0.132,3.45,0.132,3.45,0.2944007145182096,0.0,0.9556820701944595,-0.0,1.0,0.0,1.0,1.0,1.0, 1.0
807,0.0228,0.132,3.45,0.132,3.45,0.33847260371972754,0.0,0.9409762465286721,-0.0,1.0,0.0,1.0,1.0,1.0, 1.0
808,0.0228,0.132,3.45,0.132,3.45,0.3818741461458219,0.0,0.9242143347218758,-0.0,1.0,0.0,1.0,1.0,1.0, 1.0
809,0.0228,0.132,3.45,0.132,3.45,0.42447911070369054,0.0,0.9054377309214611,-0.0,1.0,0.0,1.0,1.0,1.0, 1.0
810,0.0228,0.132,3.45,0.132,3.45,0.4661530118310285,0.0,0.8847041141313071,-0.0,1.0,0.0,1.0,1.0,1.0, 1.0
811,0.0228,0.132,3.45,0.132,3.45,0.5067744496590607,0.0,0.8620786838640403,-0.0,1.0,0.0,1.0,1.0,1.0, 1.0
812,0.0228,0.132,3.45,0.132,3.45,0.5462363809858293,0.0,0.8376310739743984,-0.0,1.0,0.0,1.0,1.0,1.0, 1.0
813,0.0228,0.132,3.45,0.132,3.45,0.5844347213301151,0.0,0.8114407288913904,-0.0,1.0,0.0,1.0,1.0,1.0, 1.0
814,0.0228,0.132,3.45,0.132,3.45,0.6212818210770249,0.0,0.7835871992313399,-0.0,1.0,0.0,1.0,1.0,1.0, 1.0
815,0.0228,0.132,3.45,0.132,3.45,0.6567119653260333,0.0,0.7541414950774283,-0.0,1.0,0.0,1.0,1.0,1.0, 1.0
816,0.0228,0.132,3.45,0.132,3.45,0.6906795007842922,0.0,0.7231609967333422,-0.0,1.0,0.0,1.0,1.0,1.0, 1.0
817,0.0228,0.132,3.45,0.132,3.45,0.02278068983055789,0.0,0.9997404864117707,-0.0,1.0,0.0,1.0,1.0,1.0, 1.0
818,0.0228,0.132,3.45,0.132,3.45,0.06849238046899163,0.0,0.9976516395103509,-0.0,1.0,0.0,1.0,1.0,1.0, 1.0
819,0.0228,0.132,3.45,0.132,3.45,0.11421805855204445,0.0,0.993455703642896,-0.0,1.0,0.0,1.0,1.0,1.0, 1.0
820,0.0228,0.132,3.45,0.132,3.45,0.15981596981449575,0.0,0.9871468258533035,-0.0,1.0,0.0,1.0,1.0,1.0, 1.0
821,0.0228,0.132,3.45,0.132,3.45,0.2051767541409505,0.0,0.978724935597425,-0.0,1.0,0.0,1.0,1.0,1.0, 1.0
822,0.0228,0.132,3.45,0.132,3.45,0.250193351921082,0.0,0.968195892706891,-0.0,1.0,0.0,1.0,1.0,1.0, 1.0
823,0.0228,0.132,3.45,0.132,3.45,0.2947553747431722,0.0,0.9555727439917968,-0.0,1.0,0.0,1.0,1.0,1.0, 1.0
824,0.0228,0.132,3.45,0.132,3.45,0.3387493018314347,0.0,0.9408766712533134,-0.0,1.0,0.0,1.0,1.0,1.0, 1.0
825,0.0228,0.132,3.45,0.132,3.45,0.3820586911215037,0.0,0.9241380614056124,-0.0,1.0,0.0,1.0,1.0,1.0, 1.0
826,0.0228,0.132,3.45,0.132,3.45,0.42456503534660167,0.0,0.9053974435357872,-0.0,1.0,0.0,1.0,1.0,1.0, 1.0
827,0.0228,0.132,3.45,0.132,3.45,0.4661491533855327,0.0,0.8847061471460177,-0.0,1.0,0.0,1.0,1.0,1.0, 1.0
828,0.0228,0.132,3.45,0.132,3.45,0.5067060477482558,0.0,0.8621188903946732,-0.0,1.0,0.0,1.0,1.0,1.0, 1.0
829,0.0228,0.132,3.45,0.132,3.45,0.5461202507192451,0.0,0.8377067934273597,-0.0,1.0,0.0,1.0,1.0,1.0, 1.0
830,0.0228,0.132,3.45,0.132,3.45,0.5842931022645987,0.0,0.8115427103030444,-0.0,1.0,0.0,1.0,1.0,1.0, 1.0
831,0.0228,0.132,3.45,0.132,3.45,0.6211519397990043,0.0,0.783690160512389,-0.0,1.0,0.0,1.0,1.0,1.0, 1.0
832,0.0228,0.132,3.45,0.132,3.45,0.6566240599531072,0.0,0.7542180347158892,-0.0,1.0,0.0,1.0,1.0,1.0, 1.0
833,0.0228,0.132,3.45,0.132,3.45,0.6906496430969646,0.0,0.7231895121543422,-0.0,1.0,0.0,1.0,1.0,1.0, 1.0
834,0.0228,0.132,3.45,0.132,3.45,0.022888302627918838,0.0,0.9997380284868695,-0.0,1.0,0.0,1.0,1.0,1.0, 1.0
835,0.0228,0.132,3.45,0.132,3.45,0.06876697626467432,0.0,0.9976327495503612,-0.0,1.0,0.0,1.0,1.0,1.0, 1.0
836,0.0228,0.132,3.45,0.132,3.45,0.11460489255765541,0.0,0.9934111528475248,-0.0,1.0,0.0,1.0,1.0,1.0, 1.0
837,0.0228,0.132,3.45,0.132,3.45,0.16026720654868118,0.0,0.987073666199784,-0.0,1.0,0.0,1.0,1.0,1.0, 1.0
838,0.0228,0.132,3.45,0.132,3.45,0.20564804062064615,0.0,0.9786260181442596,-0.0,1.0,0.0,1.0,1.0,1.0, 1.0
839,0.0228,0.132,3.45,0.132,3.45,0.25064586942322986,0.0,0.9680788439693707,-0.0,1.0,0.0,1.0,1.0,1.0, 1.0
840,0.0228,0.132,3.45,0.132,3.45,0.2951553187761209,0.0,0.9554492858326739,-0.0,1.0,0.0,1.0,1.0,1.0, 1.0
841,0.0228,0.132,3.45,0.132,3.45,0.339071345824322,0.0,0.940760661614251,-0.0,1.0,0.0,1.0,1.0,1.0, 1.0
842,0.0228,0.132,3.45,0.132,3.45,0.3822863789858741,0.0,0.9240438974647626,-0.0,1.0,0.0,1.0,1.0,1.0, 1.0
843,0.0228,0.132,3.45,0.132,3.45,0.42469495325462503,0.0,0.9053365101883674,-0.0,1.0,0.0,1.0,1.0,1.0, 1.0
844,0.0228,0.132,3.45,0.132,3.45,0.46618724879263784,0.0,0.8846860737364137,-0.0,1.0,0.0,1.0,1.0,1.0, 1.0
845,0.0228,0.132,3.45,0.132,3.45,0.5066654656437213,0.0,0.8621427410377188,-0.0,1.0,0.0,1.0,1.0,1.0, 1.0
846,0.0228,0.132,3.45,0.132,3.45,0.5460293919661071,0.0,0.8377660193091645,-0.0,1.0,0.0,1.0,1.0,1.0, 1.0
847,0.0228,0.132,3.45,0.132,3.45,0.5841813713504267,0.0,0.811623142454141,-0.0,1.0,0.0,1.0,1.0,1.0, 1.0
848,0.0228,0.132,3.45,0.132,3.45,0.6210444235405255,0.0,0.7837753657708414,-0.0,1.0,0.0,1.0,1.0,1.0, 1.0
849,0.0228,0.132,3.45,0.132,3.45,0.6565420407061343,0.0,0.7542894330331193,-0.0,1.0,0.0,1.0,1.0,1.0, 1.0
850,0.0228,0.132,3.45,0.132,3.45,0.6906178720557063,0.0,0.723219852325175,-0.0,1.0,0.0,1.0,1.0,1.0, 1.0
851,0.0228,0.132,3.45,0.132,3.45,0.02302316769997499,0.0,0.9997349317439393,-0.0,1.0,0.0,1.0,1.0,1.0, 1.0
852,0.0228,0.132,3.45,0.132,3.45,0.06907943769596817,0.0,0.997611162371196,-0.0,1.0,0.0,1.0,1.0,1.0, 1.0
853,0.0228,0.132,3.45,0.132,3.45,0.11502531379341524,0.0,0.9933625607937548,-0.0,1.0,0.0,1.0,1.0,1.0, 1.0
854,0.0228,0.132,3.45,0.132,3.45,0.16074873785991828,0.0,0.9869953613246839,-0.0,1.0,0.0,1.0,1.0,1.0, 1.0
855,0.0228,0.132,3.45,0.132,3.45,0.20614882593439476,0.0,0.9785206495347304,-0.0,1.0,0.0,1.0,1.0,1.0, 1.0
856,0.0228,0.132,3.45,0.132,3.45,0.25112795813408484,0.0,0.9679538979948402,-0.0,1.0,0.0,1.0,1.0,1.0, 1.0
857,0.0228,0.132,3.45,0.132,3.45,0.2955869296620976,0.0,0.9553158467297265,-0.0,1.0,0.0,1.0,1.0,1.0, 1.0
858,0.0228,0.132,3.45,0.132,3.45,0.33942620755685177,0.0,0.9406326858150174,-0.0,1.0,0.0,1.0,1.0,1.0, 1.0
859,0.0228,0.132,3.45,0.132,3.45,0.38254792156190953,0.0,0.9239356512813341,-0.0,1.0,0.0,1.0,1.0,1.0, 1.0
860,0.0228,0.132,3.45,0.132,3.45,0.4248556393583001,0.0,0.9052611146544681,-0.0,1.0,0.0,1.0,1.0,1.0, 1.0
861,0.0228,0.132,3.45,0.132,3.45,0.4662552666111865,0.0,0.8846502282582259,-0.0,1.0,0.0,1.0,1.0,1.0, 1.0
862,0.0228,0.132,3.45,0.132,3.45,0.506654473656837,0.0,0.8621492007323984,-0.0,1.0,0.0,1.0,1.0,1.0, 1.0
863,0.0228,0.132,3.45,0.132,3.45,0.5459606526785877,0.0,0.8378108173846709,-0.0,1.0,0.0,1.0,1.0,1.0, 1.0
864,0.0228,0.132,3.45,0.132,3.45,0.5840853273204533,0.0,0.8116922633664553,-0.0,1.0,0.0,1.0,1.0,1.0, 1.0
865,0.0228,0.132,3.45,0.132,3.45,0.6209516732961677,0.0,0.7838488498624524,-0.0,1.0,0.0,1.0,1.0,1.0, 1.0
866,0.0228,0.132,3.45,0.132,3.45,0.6564756827957033,0.0,0.7543471865778483,-0.0,1.0,0.0,1.0,1.0,1.0, 1.0
867,0.0228,0.132,3.45,0.132,3.45,0.6905932832105997,0.0,0.7232433319322098,-0.0,1.0,0.0,1.0,1.0,1.0, 1.0
868,0.0228,0.132,3.45,0.132,3.45,0.023972069701342965,0.0,0.9997126286459693,-0.0,1.0,0.0,1.0,1.0,1.0, 1.0
869,0.0228,0.132,3.45,0.132,3.45,0.0721885117134774,0.0,0.997391005963355,-0.0,1.0,0.0,1.0,1.0,1.0, 1.0
870,0.0228,0.132,3.45,0.132,3.45,0.12061561280647312,0.0,0.9926992867668027,-0.0,1.0,0.0,1.0,1.0,1.0, 1.0
871,0.0228,0.132,3.45,0.132,3.45,0.16913940521859777,0.0,0.9855921375509745,-0.0,1.0,0.0,1.0,1.0,1.0, 1.0
872,0.0228,0.132,3.45,0.132,3.45,0.217606393117316,0.0,0.9760366067286984,-0.0,1.0,0.0,1.0,1.0,1.0, 1.0
873,0.0228,0.132,3.45,0.132,3.45,0.2658124799112556,0.0,0.9640247535843819,-0.0,1.0,0.0,1.0,1.0,1.0, 1.0
874,0.0228,0.132,3.45,0.132,3.45,0.31351288776893366,0.0,0.9495839453164654,-0.0,1.0,0.0,1.0,1.0,1.0, 1.0
875,0.0228,0.132,3.45,0.132,3.45,0.3604452492766368,0.0,0.9327803719385948,-0.0,1.0,0.0,1.0,1.0,1.0, 1.0
876,0.0228,0.132,3.45,0.132,3.45,0.4063459198859997,0.0,0.9137193187144511,-0.0,1.0,0.0,1.0,1.0,1.0, 1.0
877,0.0228,0.132,3.45,0.132,3.45,0.4509311222565863,0.0,0.8925587504363035,-0.0,1.0,0.0,1.0,1.0,1.0, 1.0
878,0.0228,0.132,3.45,0.132,3.45,0.4939151946111625,0.0,0.8695100807536493,-0.0,1.0,0.0,1.0,1.0,1.0, 1.0
879,0.0228,0.132,3.45,0.132,3.45,0.5350248409464258,0.0,0.8448363270896039,-0.0,1.0,0.0,1.0,1.0,1.0, 1.0
880,0.0228,0.132,3.45,0.132,3.45,0.5739473735424712,0.0,0.8188921860682876,-0.0,1.0,0.0,1.0,1.0,1.0, 1.0
881,0.0228,0.132,3.45,0.132,3.45,0.6102998535365289,0.0,0.7921704922384393,-0.0,1.0,0.0,1.0,1.0,1.0, 1.0
882,0.0228,0.132,3.45,0.132,3.45,0.6435548029531194,0.0,0.7654000363182457,-0.0,1.0,0.0,1.0,1.0,1.0, 1.0
883,0.0228,0.132,3.45,0.132,3.45,0.672837716461039,0.0,0.7397901103066293,-0.0,1.0,0.0,1.0,1.0,1.0, 1.0
884,0.0228,0.132,3.45,0.132,3.45,0.6967692305175415,0.0,0.7172953641311179,-0.0,1.0,0.0,1.0,1.0,1.0, 1.0
885,0.0228,0.132,3.45,0.132,3.45,0.02316741680903293,0.0,0.9997315993797518,-0.0,1.0,0.0,1.0,1.0,1.0, 1.0
886,0.0228,0.132,3.45,0.132,3.45,0.06977595278519728,0.0,0.9975626879614724,-0.0,1.0,0.0,1.0,1.0,1.0, 1.0
887,0.0228,0.132,3.45,0.132,3.45,0.1166534576253108,0.0,0.9931726792577713,-0.0,1.0,0.0,1.0,1.0,1.0, 1.0
888,0.0228,0.132,3.45,0.132,3.45,0.16372319005784633,0.0,0.9865063188025115,-0.0,1.0,0.0,1.0,1.0,1.0, 1.0
889,0.0228,0.132,3.45,0.132,3.45,0.2108610323161205,0.0,0.9775160484874814,-0.0,1.0,0.0,1.0,1.0,1.0, 1.0
890,0.0228,0.132,3.45,0.132,3.45,0.25788021806819916,0.0,0.966176895360833,-0.0,1.0,0.0,1.0,1.0,1.0, 1.0
891,0.0228,0.132,3.45,0.132,3.45,0.3045542020801623,0.0,0.9524950068086003,-0.0,1.0,0.0,1.0,1.0,1.0, 1.0
892,0.0228,0.132,3.45,0.132,3.45,0.35063598131706164,0.0,0.9365118304676248,-0.0,1.0,0.0,1.0,1.0,1.0, 1.0
893,0.0228,0.132,3.45,0.132,3.45,0.39586722699758087,0.0,0.9183077581014145,-0.0,1.0,0.0,1.0,1.0,1.0, 1.0
894,0.0228,0.132,3.45,0.132,3.45,0.43998083239743474,0.0,0.8980071642937268,-0.0,1.0,0.0,1.0,1.0,1.0, 1.0
895,0.0228,0.132,3.45,0.132,3.45,0.48270463737813746,0.0,0.8757832112193294,-0.0,1.0,0.0,1.0,1.0,1.0, 1.0
896,0.0228,0.132,3.45,0.132,3.45,0.5237666233276786,0.0,0.8518617988194574,-0.0,1.0,0.0,1.0,1.0,1.0, 1.0
897,0.0228,0.132,3.45,0.132,3.45,0.562895481752297,0.0,0.8265280858040152,-0.0,1.0,0.0,1.0,1.0,1.0, 1.0
898,0.0228,0.132,3.45,0.132,3.45,0.5997939438070355,0.0,0.8001545006887125,-0.0,1.0,0.0,1.0,1.0,1.0, 1.0
899,0.0228,0.132,3.45,0.132,3.45,0.6341245637589413,0.0,0.7732309083563151,-0.0,1.0,0.0,1.0,1.0,1.0, 1.0
900,0.0228,0.132,3.45,0.132,3.45,0.6655244977416177,0.0,0.7463760063840258,-0.0,1.0,0.0,1.0,1.0,1.0, 1.0
901,0.0228,0.132,3.45,0.132,3.45,0.6938418883706756,0.0,0.720127373415436,-0.0,1.0,0.0,1.0,1.0,1.0, 1.0
902,0.0228,0.132,3.45,0.132,3.45,0.022724435001015862,0.0,0.9997417666847198,-0.0,1.0,0.0,1.0,1.0,1.0, 1.0
903,0.0228,0.132,3.45,0.132,3.45,0.06843208843809669,0.0,0.9976557769451349,-0.0,1.0,0.0,1.0,1.0,1.0, 1.0
904,0.0228,0.132,3.45,0.132,3.45,0.11443049595912831,0.0,0.993431256602362,-0.0,1.0,0.0,1.0,1.0,1.0, 1.0
905,0.0228,0.132,3.45,0.132,3.45,0.1606643379264446,0.0,0.9870091035642261,-0.0,1.0,0.0,1.0,1.0,1.0, 1.0
906,0.0228,0.132,3.45,0.132,3.45,0.20702275750091,0.0,0.9783361272470313,-0.0,1.0,0.0,1.0,1.0,1.0, 1.0
907,0.0228,0.132,3.45,0.132,3.45,0.25333337854082955,0.0,0.9673790360128178,-0.0,1.0,0.0,1.0,1.0,1.0, 1.0
908,0.0228,0.132,3.45,0.132,3.45,0.2993835084150247,0.0,0.9541328601872545,-0.0,1.0,0.0,1.0,1.0,1.0, 1.0
909,0.0228,0.132,3.45,0.132,3.45,0.3449392733274066,0.0,0.938625003777526,-0.0,1.0,0.0,1.0,1.0,1.0, 1.0
910,0.0228,0.132,3.45,0.132,3.45,0.38975045464628855,0.0,0.920920508569014,-0.0,1.0,0.0,1.0,1.0,1.0, 1.0
911,0.0228,0.132,3.45,0.132,3.45,0.4335605116017867,0.0,0.9011244546562905,-0.0,1.0,0.0,1.0,1.0,1.0, 1.0
912,0.0228,0.132,3.45,0.132,3.45,0.4761204189246863,0.0,0.8793800922712438,-0.0,1.0,0.0,1.0,1.0,1.0, 1.0
913,0.0228,0.132,3.45,0.132,3.45,0.5171747079701667,0.0,0.8558798522199086,-0.0,1.0,0.0,1.0,1.0,1.0, 1.0
914,0.0228,0.132,3.45,0.132,3.45,0.5564799393943228,0.0,0.8308610455736211,-0.0,1.0,0.0,1.0,1.0,1.0, 1.0
915,0.0228,0.132,3.45,0.132,3.45,0.5938118508680584,0.0,0.8046039309925418,-0.0,1.0,0.0,1.0,1.0,1.0, 1.0
916,0.0228,0.132,3.45,0.132,3.45,0.6289595538961874,0.0,0.7774380229720622,-0.0,1.0,0.0,1.0,1.0,1.0, 1.0
917,0.0228,0.132,3.45,0.132,3.45,0.6618025446614837,0.0,0.7496781922128887,-0.0,1.0,0.0,1.0,1.0,1.0, 1.0
918,0.0228,0.132,3.45,0.132,3.45,0.6924531514742126,0.0,0.7214628424343358,-0.0,1.0,0.0,1.0,1.0,1.0, 1.0
919,0.0228,0.132,3.45,0.132,3.45,0.022505482082864597,0.0,0.999746719562619,-0.0,1.0,0.0,1.0,1.0,1.0, 1.0
920,0.0228,0.132,3.45,0.132,3.45,0.06775231265330564,0.0,0.9977021720584398,-0.0,1.0,0.0,1.0,1.0,1.0, 1.0
921,0.0228,0.132,3.45,0.132,3.45,0.11328658078817443,0.0,0.9935623536614723,-0.0,1.0,0.0,1.0,1.0,1.0, 1.0
922,0.0228,0.132,3.45,0.132,3.45,0.15906811536544538,0.0,0.9872676104654124,-0.0,1.0,0.0,1.0,1.0,1.0, 1.0
923,0.0228,0.132,3.45,0.132,3.45,0.2049905643963518,0.0,0.9787639493302077,-0.0,1.0,0.0,1.0,1.0,1.0, 1.0
924,0.0228,0.132,3.45,0.132,3.45,0.2508896185817151,0.0,0.9680157019841783,-0.0,1.0,0.0,1.0,1.0,1.0, 1.0
925,0.0228,0.132,3.45,0.132,3.45,0.29656747308348236,0.0,0.9550119024959207,-0.0,1.0,0.0,1.0,1.0,1.0, 1.0
926,0.0228,0.132,3.45,0.132,3.45,0.34180057313643664,0.0,0.93977250875071,-0.0,1.0,0.0,1.0,1.0,1.0, 1.0
927,0.0228,0.132,3.45,0.132,3.45,0.3863461286000071,0.0,0.9223538740178775,-0.0,1.0,0.0,1.0,1.0,1.0, 1.0
928,0.0228,0.132,3.45,0.132,3.45,0.4299610194622069,0.0,0.902847452088679,-0.0,1.0,0.0,1.0,1.0,1.0, 1.0
929,0.0228,0.132,3.45,0.132,3.45,0.4724117884528627,0.0,0.8813779564583901,-0.0,1.0,0.0,1.0,1.0,1.0, 1.0
930,0.0228,0.132,3.45,0.132,3.45,0.5134712283060039,0.0,0.8581068101943509,-0.0,1.0,0.0,1.0,1.0,1.0, 1.0
931,0.0228,0.132,3.45,0.132,3.45,0.5529106031026257,0.0,0.8332405804908272,-0.0,1.0,0.0,1.0,1.0,1.0, 1.0
932,0.0228,0.132,3.45,0.132,3.45,0.5905439242202875,0.0,0.807005497853951,-0.0,1.0,0.0,1.0,1.0,1.0, 1.0
933,0.0228,0.132,3.45,0.132,3.45,0.6262367093543031,0.0,0.779632980226654,-0.0,1.0,0.0,1.0,1.0,1.0, 1.0
934,0.0228,0.132,3.45,0.132,3.45,0.6599385374854101,0.0,0.7513195902820703,-0.0,1.0,0.0,1.0,1.0,1.0, 1.0
935,0.0228,0.132,3.45,0.132,3.45,0.6917867719221522,0.0,0.7221018364424288,-0.0,1.0,0.0,1.0,1.0,1.0, 1.0
936,0.0228,0.132,3.45,0.132,3.45,0.022411373391120204,0.0,0.999748833629089,-0.0,1.0,0.0,1.0,1.0,1.0, 1.0
937,0.0228,0.132,3.45,0.132,3.45,0.06744973369278043,0.0,0.9977226736046311,-0.0,1.0,0.0,1.0,1.0,1.0, 1.0
938,0.0228,0.132,3.45,0.132,3.45,0.11275906592202319,0.0,0.9936223593762334,-0.0,1.0,0.0,1.0,1.0,1.0, 1.0
939,0.0228,0.132,3.45,0.132,3.45,0.15830232811020206,0.0,0.987390689096717,-0.0,1.0,0.0,1.0,1.0,1.0, 1.0
940,0.0228,0.132,3.45,0.132,3.45,0.20398244102649082,0.0,0.9789745470403581,-0.0,1.0,0.0,1.0,1.0,1.0, 1.0
941,0.0228,0.132,3.45,0.132,3.45,0.2496407361998754,0.0,0.9683385269778251,-0.0,1.0,0.0,1.0,1.0,1.0, 1.0
942,0.0228,0.132,3.45,0.132,3.45,0.29508456660108084,0.0,0.9554711395713908,-0.0,1.0,0.0,1.0,1.0,1.0, 1.0
943,0.0228,0.132,3.45,0.132,3.45,0.34010459423718353,0.0,0.9403876142202006,-0.0,1.0,0.0,1.0,1.0,1.0, 1.0
944,0.0228,0.132,3.45,0.132,3.45,0.3844681776666388,0.0,0.9231382455308055,-0.0,1.0,0.0,1.0,1.0,1.0, 1.0
945,0.0228,0.132,3.45,0.132,3.45,0.42794629257218436,0.0,0.9038041661077484,-0.0,1.0,0.0,1.0,1.0,1.0, 1.0
946,0.0228,0.132,3.45,0.132,3.45,0.4703137097072852,0.0,0.8824992999778366,-0.0,1.0,0.0,1.0,1.0,1.0, 1.0
947,0.0228,0.132,3.45,0.132,3.45,0.511363630969324,0.0,0.8593644377805432,-0.0,1.0,0.0,1.0,1.0,1.0, 1.0
948,0.0228,0.132,3.45,0.132,3.45,0.5508904164890832,0.0,0.8345775871783789,-0.0,1.0,0.0,1.0,1.0,1.0, 1.0
949,0.0228,0.132,3.45,0.132,3.45,0.5887233639443424,0.0,0.8083345846529502,-0.0,1.0,0.0,1.0,1.0,1.0, 1.0
950,0.0228,0.132,3.45,0.132,3.45,0.6247569477853026,0.0,0.7808192852344215,-0.0,1.0,0.0,1.0,1.0,1.0, 1.0
951,0.0228,0.132,3.45,0.132,3.45,0.6589604812508785,0.0,0.7521775615834405,-0.0,1.0,0.0,1.0,1.0,1.0, 1.0
952,0.0228,0.132,3.45,0.132,3.45,0.6914451861147456,0.0,0.7224289270224062,-0.0,1.0,0.0,1.0,1.0,1.0, 1.0
953,0.0228,0.132,3.45,0.132,3.45,0.022384292951280516,0.0,0.9997494403244602,-0.0,1.0,0.0,1.0,1.0,1.0, 1.0
954,0.0228,0.132,3.45,0.132,3.45,0.06735228261795399,0.0,0.9977292568759079,-0.0,1.0,0.0,1.0,1.0,1.0, 1.0
955,0.0228,0.132,3.45,0.132,3.45,0.11257041780898461,0.0,0.9936437495573102,-0.0,1.0,0.0,1.0,1.0,1.0, 1.0
956,0.0228,0.132,3.45,0.132,3.45,0.15800007562718657,0.0,0.987439099945816,-0.0,1.0,0.0,1.0,1.0,1.0, 1.0
957,0.0228,0.132,3.45,0.132,3.45,0.20354407029171484,0.0,0.979065785046685,-0.0,1.0,0.0,1.0,1.0,1.0, 1.0
958,0.0228,0.132,3.45,0.132,3.45,0.2490516223267779,0.0,0.9684902113167689,-0.0,1.0,0.0,1.0,1.0,1.0, 1.0
959,0.0228,0.132,3.45,0.132,3.45,0.2943397293241049,0.0,0.9557008547351062,-0.0,1.0,0.0,1.0,1.0,1.0, 1.0
960,0.0228,0.132,3.45,0.132,3.45,0.33920402126334015,0.0,0.9407128318242391,-0.0,1.0,0.0,1.0,1.0,1.0, 1.0
961,0.0228,0.132,3.45,0.132,3.45,0.3834283400069773,0.0,0.9235706297189694,-0.0,1.0,0.0,1.0,1.0,1.0, 1.0
962,0.0228,0.132,3.45,0.132,3.45,0.4267980419677596,0.0,0.9043469640422785,-0.0,1.0,0.0,1.0,1.0,1.0, 1.0
963,0.0228,0.132,3.45,0.132,3.45,0.46909403303015745,0.0,0.8831482254839794,-0.0,1.0,0.0,1.0,1.0,1.0, 1.0
964,0.0228,0.132,3.45,0.132,3.45,0.5101213995663653,0.0,0.8601024111723282,-0.0,1.0,0.0,1.0,1.0,1.0, 1.0
965,0.0228,0.132,3.45,0.132,3.45,0.5496925270387413,0.0,0.8353670604696852,-0.0,1.0,0.0,1.0,1.0,1.0, 1.0
966,0.0228,0.132,3.45,0.132,3.45,0.5876462359504135,0.0,0.8091179774132513,-0.0,1.0,0.0,1.0,1.0,1.0, 1.0
967,0.0228,0.132,3.45,0.132,3.45,0.6238877353053921,0.0,0.7815139753936003,-0.0,1.0,0.0,1.0,1.0,1.0, 1.0
968,0.0228,0.132,3.45,0.132,3.45,0.6583991078462862,0.0,0.7526689941715511,-0.0,1.0,0.0,1.0,1.0,1.0, 1.0
969,0.0228,0.132,3.45,0.132,3.45,0.6912529672616983,0.0,0.7226128529523244,-0.0,1.0,0.0,1.0,1.0,1.0, 1.0
970,0.0228,0.132,3.45,0.132,3.45,0.02239261213504813,0.0,0.9997492540241125,-0.0,1.0,0.0,1.0,1.0,1.0, 1.0
971,0.0228,0.132,3.45,0.132,3.45,0.06736609437384129,0.0,0.997728324409413,-0.0,1.0,0.0,1.0,1.0,1.0, 1.0
972,0.0228,0.132,3.45,0.132,3.45,0.11256722513026231,0.0,0.9936441112523503,-0.0,1.0,0.0,1.0,1.0,1.0, 1.0
973,0.0228,0.132,3.45,0.132,3.45,0.15795217237916231,0.0,0.9874467637501798,-0.0,1.0,0.0,1.0,1.0,1.0, 1.0
974,0.0228,0.132,3.45,0.132,3.45,0.20342078098906063,0.0,0.9790914083280481,-0.0,1.0,0.0,1.0,1.0,1.0, 1.0
975,0.0228,0.132,3.45,0.132,3.45,0.24882718563166953,0.0,0.9685478985009583,-0.0,1.0,0.0,1.0,1.0,1.0, 1.0
976,0.0228,0.132,3.45,0.132,3.45,0.2939978619313786,0.0,0.9558060771829074,-0.0,1.0,0.0,1.0,1.0,1.0, 1.0
977,0.0228,0.132,3.45,0.132,3.45,0.3387394061669307,0.0,0.9408802339881922,-0.0,1.0,0.0,1.0,1.0,1.0, 1.0
978,0.0228,0.132,3.45,0.132,3.45,0.3828458829594221,0.0,0.9238122265379586,-0.0,1.0,0.0,1.0,1.0,1.0, 1.0
979,0.0228,0.132,3.45,0.132,3.45,0.4261131402735468,0.0,0.9046698799486014,-0.0,1.0,0.0,1.0,1.0,1.0, 1.0
980,0.0228,0.132,3.45,0.132,3.45,0.46833923528951066,0.0,0.8835487313603231,-0.0,1.0,0.0,1.0,1.0,1.0, 1.0
981,0.0228,0.132,3.45,0.132,3.45,0.5093337321080649,0.0,0.8605690845811683,-0.0,1.0,0.0,1.0,1.0,1.0, 1.0
982,0.0228,0.132,3.45,0.132,3.45,0.548920283759151,0.0,0.8358747047720568,-0.0,1.0,0.0,1.0,1.0,1.0, 1.0
983,0.0228,0.132,3.45,0.132,3.45,0.5869500068711484,0.0,0.8096231774313027,-0.0,1.0,0.0,1.0,1.0,1.0, 1.0
984,0.0228,0.132,3.45,0.132,3.45,0.6233303837411325,0.0,0.7819585875896067,-0.0,1.0,0.0,1.0,1.0,1.0, 1.0
985,0.0228,0.132,3.45,0.132,3.45,0.6580441732423679,0.0,0.7529793264504467,-0.0,1.0,0.0,1.0,1.0,1.0, 1.0
986,0.0228,0.132,3.45,0.132,3.45,0.6911343943806475,0.0,0.7227262613909194,-0.0,1.0,0.0,1.0,1.0,1.0, 1.0
987,0.0228,0.132,3.45,0.132,3.45,0.022420242052534806,0.0,0.9997486347809162,-0.0,1.0,0.0,1.0,1.0,1.0, 1.0
988,0.0228,0.132,3.45,0.132,3.45,0.06744288058732052,0.0,0.9977231368762,-0.0,1.0,0.0,1.0,1.0,1.0, 1.0
989,0.0228,0.132,3.45,0.132,3.45,0.11266872995532404,0.0,0.9936326067970265,-0.0,1.0,0.0,1.0,1.0,1.0, 1.0
990,0.0228,0.132,3.45,0.132,3.45,0.15804238747615615,0.0,0.987432328699459,-0.0,1.0,0.0,1.0,1.0,1.0, 1.0
991,0.0228,0.132,3.45,0.132,3.45,0.20346778445014335,0.0,0.9790816414839726,-0.0,1.0,0.0,1.0,1.0,1.0, 1.0
992,0.0228,0.132,3.45,0.132,3.45,0.24880366283311858,0.0,0.9685539413790147,-0.0,1.0,0.0,1.0,1.0,1.0, 1.0
993,0.0228,0.132,3.45,0.132,3.45,0.29387934034656615,0.0,0.9558425253761558,-0.0,1.0,0.0,1.0,1.0,1.0, 1.0
994,0.0228,0.132,3.45,0.132,3.45,0.33851299243586863,0.0,0.9409617175805366,-0.0,1.0,0.0,1.0,1.0,1.0, 1.0
995,0.0228,0.132,3.45,0.132,3.45,0.3825137555733952,0.0,0.9239497966865607,-0.0,1.0,0.0,1.0,1.0,1.0, 1.0
996,0.0228,0.132,3.45,0.132,3.45,0.42568745103509503,0.0,0.9048702636462552,-0.0,1.0,0.0,1.0,1.0,1.0, 1.0
997,0.0228,0.132,3.45,0.132,3.45,0.46783692021083806,0.0,0.8838148087057819,-0.0,1.0,0.0,1.0,1.0,1.0, 1.0
998,0.0228,0.132,3.45,0.132,3.45,0.5087840220158817,0.0,0.8608941972979856,-0.0,1.0,0.0,1.0,1.0,1.0, 1.0
999,0.0228,0.132,3.45,0.132,3.45,0.5483717562748828,0.0,0.8362346661792972,-0.0,1.0,0.0,1.0,1.0,1.0, 1.0
1000,0.0228,0.132,3.45,0.132,3.45,0.586453351579172,0.0,0.8099830037856081,-0.0,1.0,0.0,1.0,1.0,1.0, 1.0
1001,0.0228,0.132,3.45,0.132,3.45,0.6229378656715676,0.0,0.7822713183496836,-0.0,1.0,0.0,1.0,1.0,1.0, 1.0
1002,0.0228,0.132,3.45,0.132,3.45,0.6577925705499802,0.0,0.7531991331176964,-0.0,1.0,0.0,1.0,1.0,1.0, 1.0
1003,0.0228,0.132,3.45,0.132,3.45,0.691047073724777,0.0,0.7228097549815045,-0.0,1.0,0.0,1.0,1.0,1.0, 1.0
1004,0.0228,0.132,3.45,0.132,3.45,0.022460015753492612,0.0,0.9997477420291345,-0.0,1.0,0.0,1.0,1.0,1.0, 1.0
1005,0.0228,0.132,3.45,0.132,3.45,0.06755479811742791,0.0,0.9977155653047183,-0.0,1.0,0.0,1.0,1.0,1.0, 1.0
1006,0.0228,0.132,3.45,0.132,3.45,0.11282651712612331,0.0,0.9936147025045415,-0.0,1.0,0.0,1.0,1.0,1.0, 1.0
1007,0.0228,0.132,3.45,0.132,3.45,0.15821183393983967,0.0,0.9874051932218062,-0.0,1.0,0.0,1.0,1.0,1.0, 1.0
1008,0.0228,0.132,3.45,0.132,3.45,0.2036108752018316,0.0,0.9790518941810715,-0.0,1.0,0.0,1.0,1.0,1.0, 1.0
1009,0.0228,0.132,3.45,0.132,3.45,0.24888917503125962,0.0,0.968531970846734,-0.0,1.0,0.0,1.0,1.0,1.0, 1.0
1010,0.0228,0.132,3.45,0.132,3.45,0.2938862131265581,0.0,0.9558404122729542,-0.0,1.0,0.0,1.0,1.0,1.0, 1.0
1011,0.0228,0.132,3.45,0.132,3.45,0.33842328648582154,0.0,0.9409939846588478,-0.0,1.0,0.0,1.0,1.0,1.0, 1.0
1012,0.0228,0.132,3.45,0.132,3.45,0.38232355920237415,0.0,0.9240285147541871,-0.0,1.0,0.0,1.0,1.0,1.0, 1.0
1013,0.0228,0.132,3.45,0.132,3.45,0.42540496758654484,0.0,0.9050031014050122,-0.0,1.0,0.0,1.0,1.0,1.0, 1.0
1014,0.0228,0.132,3.45,0.132,3.45,0.46747832080983515,0.0,0.8840045359458382,-0.0,1.0,0.0,1.0,1.0,1.0, 1.0
1015,0.0228,0.132,3.45,0.132,3.45,0.5083745926197766,0.0,0.8611360366275912,-0.0,1.0,0.0,1.0,1.0,1.0, 1.0
1016,0.0228,0.132,3.45,0.132,3.45,0.5479466430251718,0.0,0.8365132852486236,-0.0,1.0,0.0,1.0,1.0,1.0, 1.0
1017,0.0228,0.132,3.45,0.132,3.45,0.5860590521446218,0.0,0.8102683428342411,-0.0,1.0,0.0,1.0,1.0,1.0, 1.0
1018,0.0228,0.132,3.45,0.132,3.45,0.6226247884487911,0.0,0.7825205254874137,-0.0,1.0,0.0,1.0,1.0,1.0, 1.0
1019,0.0228,0.132,3.45,0.132,3.45,0.657590963263428,0.0,0.7533751555727576,-0.0,1.0,0.0,1.0,1.0,1.0, 1.0
1020,0.0228,0.132,3.45,0.132,3.45,0.6909767907250371,0.0,0.722876942971159,-0.0,1.0,0.0,1.0,1.0,1.0, 1.0
1021,0.0228,0.132,3.45,0.132,3.45,0.022506884828099493,0.0,0.9997466879841787,-0.0,1.0,0.0,1.0,1.0,1.0, 1.0
1022,0.0228,0.132,3.45,0.132,3.45,0.0676870831841998,0.0,0.9977065995421778,-0.0,1.0,0.0,1.0,1.0,1.0, 1.0
1023,0.0228,0.132,3.45,0.132,3.45,0.11301811237686901,0.0,0.9935929278506209,-0.0,1.0,0.0,1.0,1.0,1.0, 1.0
1024,0.0228,0.132,3.45,0.132,3.45,0.158427810867695,0.0,0.9873705630327805,-0.0,1.0,0.0,1.0,1.0,1.0, 1.0
1025,0.0228,0.132,3.45,0.132,3.45,0.20381225677296647,0.0,0.9790099917718463,-0.0,1.0,0.0,1.0,1.0,1.0, 1.0
1026,0.0228,0.132,3.45,0.132,3.45,0.24904061746642367,0.0,0.9684930411995444,-0.0,1.0,0.0,1.0,1.0,1.0, 1.0
1027,0.0228,0.132,3.45,0.132,3.45,0.2939616906665485,0.0,0.955817202408737,-0.0,1.0,0.0,1.0,1.0,1.0, 1.0
1028,0.0228,0.132,3.45,0.132,3.45,0.3384105991125046,0.0,0.9409985475059544,-0.0,1.0,0.0,1.0,1.0,1.0, 1.0
1029,0.0228,0.132,3.45,0.132,3.45,0.3822141344917986,0.0,0.9240737824409289,-0.0,1.0,0.0,1.0,1.0,1.0, 1.0
1030,0.0228,0.132,3.45,0.132,3.45,0.42519882816557636,0.0,0.90509997045996,-0.0,1.0,0.0,1.0,1.0,1.0, 1.0
1031,0.0228,0.132,3.45,0.132,3.45,0.4671956009630094,0.0,0.8841539857065693,-0.0,1.0,0.0,1.0,1.0,1.0, 1.0
1032,0.0228,0.132,3.45,0.132,3.45,0.5080424027684365,0.0,0.8613320596548545,-0.0,1.0,0.0,1.0,1.0,1.0, 1.0
1033,0.0228,0.132,3.45,0.132,3.45,0.5475946284984885,0.0,0.8367437617572074,-0.0,1.0,0.0,1.0,1.0,1.0, 1.0
1034,0.0228,0.132,3.45,0.132,3.45,0.5857289908810229,0.0,0.8105069705076562,-0.0,1.0,0.0,1.0,1.0,1.0, 1.0
1035,0.0228,0.132,3.45,0.132,3.45,0.6223523489138952,0.0,0.7827372188680932,-0.0,1.0,0.0,1.0,1.0,1.0, 1.0
1036,0.0228,0.132,3.45,0.132,3.45,0.6574119750539226,0.0,0.7535313497497638,-0.0,1.0,0.0,1.0,1.0,1.0, 1.0
1037,0.0228,0.132,3.45,0.132,3.45,0.6909173828128371,0.0,0.7229337245744311,-0.0,1.0,0.0,1.0,1.0,1.0, 1.0
1038,0.0228,0.132,3.45,0.132,3.45,0.022557689698713905,0.0,0.9997455429435315,-0.0,1.0,0.0,1.0,1.0,1.0, 1.0
1039,0.0228,0.132,3.45,0.132,3.45,0.06783394369431275,0.0,0.9976966252738739,-0.0,1.0,0.0,1.0,1.0,1.0, 1.0
1040,0.0228,0.132,3.45,0.132,3.45,0.11323477800251551,0.0,0.993568258878433,-0.0,1.0,0.0,1.0,1.0,1.0, 1.0
1041,0.0228,0.132,3.45,0.132,3.45,0.1586755442502544,0.0,0.9873307812769161,-0.0,1.0,0.0,1.0,1.0,1.0, 1.0
1042,0.0228,0.132,3.45,0.132,3.45,0.20405348370467064,0.0,0.9789597416584545,-0.0,1.0,0.0,1.0,1.0,1.0, 1.0
1043,0.0228,0.132,3.45,0.132,3.45,0.24923863882264652,0.0,0.9684420999305196,-0.0,1.0,0.0,1.0,1.0,1.0, 1.0
1044,0.0228,0.132,3.45,0.132,3.45,0.2940861432725579,0.0,0.9557789181265051,-0.0,1.0,0.0,1.0,1.0,1.0, 1.0
1045,0.0228,0.132,3.45,0.132,3.45,0.3384451188610914,0.0,0.940986132479699,-0.0,1.0,0.0,1.0,1.0,1.0, 1.0
1046,0.0228,0.132,3.45,0.132,3.45,0.38215323663712364,0.0,0.9240989685784584,-0.0,1.0,0.0,1.0,1.0,1.0, 1.0
1047,0.0228,0.132,3.45,0.132,3.45,0.42504498005794045,0.0,0.9051722294279388,-0.0,1.0,0.0,1.0,1.0,1.0, 1.0
1048,0.0228,0.132,3.45,0.132,3.45,0.4669630509936701,0.0,0.8842768282651554,-0.0,1.0,0.0,1.0,1.0,1.0, 1.0
1049,0.0228,0.132,3.45,0.132,3.45,0.507755435358519,0.0,0.8615012581905384,-0.0,1.0,0.0,1.0,1.0,1.0, 1.0
1050,0.0228,0.132,3.45,0.132,3.45,0.5472842324828904,0.0,0.836946813648044,-0.0,1.0,0.0,1.0,1.0,1.0, 1.0
1051,0.0228,0.132,3.45,0.132,3.45,0.5854314398803331,0.0,0.8107219185390512,-0.0,1.0,0.0,1.0,1.0,1.0, 1.0
1052,0.0228,0.132,3.45,0.132,3.45,0.622104574461774,0.0,0.7829341597054857,-0.0,1.0,0.0,1.0,1.0,1.0, 1.0
1053,0.0228,0.132,3.45,0.132,3.45,0.6572500598330983,0.0,0.7536725806670882,-0.0,1.0,0.0,1.0,1.0,1.0, 1.0
1054,0.0228,0.132,3.45,0.132,3.45,0.6908626396614648,0.0,0.7229860393672847,-0.0,1.0,0.0,1.0,1.0,1.0, 1.0
1055,0.0228,0.132,3.45,0.132,3.45,0.022612459359278383,0.0,0.9997443056510625,-0.0,1.0,0.0,1.0,1.0,1.0, 1.0
1056,0.0228,0.132,3.45,0.132,3.45,0.06799265270501217,0.0,0.9976858218788797,-0.0,1.0,0.0,1.0,1.0,1.0, 1.0
1057,0.0228,0.132,3.45,0.132,3.45,0.1134714912316466,0.0,0.9935412526300386,-0.0,1.0,0.0,1.0,1.0,1.0, 1.0
1058,0.0228,0.132,3.45,0.132,3.45,0.15895194420143383,0.0,0.9872863208991526,-0.0,1.0,0.0,1.0,1.0,1.0, 1.0
1059,0.0228,0.132,3.45,0.132,3.45,0.20432703453721918,0.0,0.978902683088174,-0.0,1.0,0.0,1.0,1.0,1.0, 1.0
1060,0.0228,0.132,3.45,0.132,3.45,0.24947151533608464,0.0,0.968382136883946,-0.0,1.0,0.0,1.0,1.0,1.0, 1.0
1061,0.0228,0.132,3.45,0.132,3.45,0.2942517431503477,0.0,0.9557279485570053,-0.0,1.0,0.0,1.0,1.0,1.0, 1.0
1062,0.0228,0.132,3.45,0.132,3.45,0.3385228262127757,0.0,0.940958179800205,-0.0,1.0,0.0,1.0,1.0,1.0, 1.0
1063,0.0228,0.132,3.45,0.132,3.45,0.3821325933781775,0.0,0.9241075051518998,-0.0,1.0,0.0,1.0,1.0,1.0, 1.0
1064,0.0228,0.132,3.45,0.132,3.45,0.42492743543909045,0.0,0.9052274159630594,-0.0,1.0,0.0,1.0,1.0,1.0, 1.0
1065,0.0228,0.132,3.45,0.132,3.45,0.4667617983694604,0.0,0.8843830751336816,-0.0,1.0,0.0,1.0,1.0,1.0, 1.0
1066,0.0228,0.132,3.45,0.132,3.45,0.5074975889793616,0.0,0.861653176852575,-0.0,1.0,0.0,1.0,1.0,1.0, 1.0
1067,0.0228,0.132,3.45,0.132,3.45,0.546997858345544,0.0,0.8371340053810907,-0.0,1.0,0.0,1.0,1.0,1.0, 1.0
1068,0.0228,0.132,3.45,0.132,3.45,0.5851562001516537,0.0,0.8109206011836657,-0.0,1.0,0.0,1.0,1.0,1.0, 1.0
1069,0.0228,0.132,3.45,0.132,3.45,0.6218816722846289,0.0,0.7831112217791756,-0.0,1.0,0.0,1.0,1.0,1.0, 1.0
1070,0.0228,0.132,3.45,0.132,3.45,0.6571016246767155,0.0,0.753801999763347,-0.0,1.0,0.0,1.0,1.0,1.0, 1.0
1071,0.0228,0.132,3.45,0.132,3.45,0.6908096337127543,0.0,0.7230366864617939,-0.0,1.0,0.0,1.0,1.0,1.0, 1.0
1072,0.0228,0.132,3.45,0.132,3.45,0.022672277925363967,0.0,0.9997429508697098,-0.0,1.0,0.0,1.0,1.0,1.0, 1.0
1073,0.0228,0.132,3.45,0.132,3.45,0.06816559049075828,0.0,0.9976740210474794,-0.0,1.0,0.0,1.0,1.0,1.0, 1.0
1074,0.0228,0.132,3.45,0.132,3.45,0.11372936394444197,0.0,0.9935117673066547,-0.0,1.0,0.0,1.0,1.0,1.0, 1.0
1075,0.0228,0.132,3.45,0.132,3.45,0.15925393186048442,0.0,0.9872376538539118,-0.0,1.0,0.0,1.0,1.0,1.0, 1.0
1076,0.0228,0.132,3.45,0.132,3.45,0.20462950820993442,0.0,0.9788394987789165,-0.0,1.0,0.0,1.0,1.0,1.0, 1.0
1077,0.0228,0.132,3.45,0.132,3.45,0.24973807209947013,0.0,0.9683134282576277,-0.0,1.0,0.0,1.0,1.0,1.0, 1.0
1078,0.0228,0.132,3.45,0.132,3.45,0.29445208156930386,0.0,0.9556662449095417,-0.0,1.0,0.0,1.0,1.0,1.0, 1.0
1079,0.0228,0.132,3.45,0.132,3.45,0.3386362414844463,0.0,0.940917369354657,-0.0,1.0,0.0,1.0,1.0,1.0, 1.0
1080,0.0228,0.132,3.45,0.132,3.45,0.3821484807023524,0.0,0.924100935340336,-0.0,1.0,0.0,1.0,1.0,1.0, 1.0
1081,0.0228,0.132,3.45,0.132,3.45,0.4248480160945171,0.0,0.9052646923527687,-0.0,1.0,0.0,1.0,1.0,1.0, 1.0
1082,0.0228,0.132,3.45,0.132,3.45,0.46660220089369353,0.0,0.8844672894579885,-0.0,1.0,0.0,1.0,1.0,1.0, 1.0
1083,0.0228,0.132,3.45,0.132,3.45,0.5072752852677551,0.0,0.8617840709577531,-0.0,1.0,0.0,1.0,1.0,1.0, 1.0
1084,0.0228,0.132,3.45,0.132,3.45,0.5467422797010494,0.0,0.8373009492334877,-0.0,1.0,0.0,1.0,1.0,1.0, 1.0
1085,0.0228,0.132,3.45,0.132,3.45,0.5849072904583777,0.0,0.8111001550786678,-0.0,1.0,0.0,1.0,1.0,1.0, 1.0
1086,0.0228,0.132,3.45,0.132,3.45,0.6216706051565919,0.0,0.7832787873319669,-0.0,1.0,0.0,1.0,1.0,1.0, 1.0
1087,0.0228,0.132,3.45,0.132,3.45,0.6569587208236268,0.0,0.7539265475719661,-0.0,1.0,0.0,1.0,1.0,1.0, 1.0
1088,0.0228,0.132,3.45,0.132,3.45,0.6907610411230339,0.0,0.723083110068699,-0.0,1.0,0.0,1.0,1.0,1.0, 1.0
1089,0.0228,0.132,3.45,0.132,3.45,0.022739863999647145,0.0,0.99974141585976,-0.0,1.0,0.0,1.0,1.0,1.0, 1.0
1090,0.0228,0.132,3.45,0.132,3.45,0.06835759259816677,0.0,0.9976608840353434,-0.0,1.0,0.0,1.0,1.0,1.0, 1.0
1091,0.0228,0.132,3.45,0.132,3.45,0.11401184152992494,0.0,0.9934793908234612,-0.0,1.0,0.0,1.0,1.0,1.0, 1.0
1092,0.0228,0.132,3.45,0.132,3.45,0.1595830515940525,0.0,0.9871845063836495,-0.0,1.0,0.0,1.0,1.0,1.0, 1.0
1093,0.0228,0.132,3.45,0.132,3.45,0.20496235800578544,0.0,0.9787698564017531,-0.0,1.0,0.0,1.0,1.0,1.0, 1.0
1094,0.0228,0.132,3.45,0.132,3.45,0.2500376806315069,0.0,0.9682361066725494,-0.0,1.0,0.0,1.0,1.0,1.0, 1.0
1095,0.0228,0.132,3.45,0.132,3.45,0.2946879626490506,0.0,0.9555935352804308,-0.0,1.0,0.0,1.0,1.0,1.0, 1.0
1096,0.0228,0.132,3.45,0.132,3.45,0.33878456290468323,0.0,0.9408639752575729,-0.0,1.0,0.0,1.0,1.0,1.0, 1.0
1097,0.0228,0.132,3.45,0.132,3.45,0.38219996456643807,0.0,0.9240796432588554,-0.0,1.0,0.0,1.0,1.0,1.0, 1.0
1098,0.0228,0.132,3.45,0.132,3.45,0.42480720150352635,0.0,0.9052838458465623,-0.0,1.0,0.0,1.0,1.0,1.0, 1.0
1099,0.0228,0.132,3.45,0.132,3.45,0.4664793206037085,0.0,0.8845321042500959,-0.0,1.0,0.0,1.0,1.0,1.0, 1.0
1100,0.0228,0.132,3.45,0.132,3.45,0.5070912893181164,0.0,0.861892350759473,-0.0,1.0,0.0,1.0,1.0,1.0, 1.0
1101,0.0228,0.132,3.45,0.132,3.45,0.5465232818478373,0.0,0.8374439100013022,-0.0,1.0,0.0,1.0,1.0,1.0, 1.0
1102,0.0228,0.132,3.45,0.132,3.45,0.5846779136348265,0.0,0.8112655159117922,-0.0,1.0,0.0,1.0,1.0,1.0, 1.0
1103,0.0228,0.132,3.45,0.132,3.45,0.6214674045329639,0.0,0.783440020105599,-0.0,1.0,0.0,1.0,1.0,1.0, 1.0
1104,0.0228,0.132,3.45,0.132,3.45,0.6568282770736376,0.0,0.7540401941783188,-0.0,1.0,0.0,1.0,1.0,1.0, 1.0
1105,0.0228,0.132,3.45,0.132,3.45,0.6907200081927408,0.0,0.7231223065859744,-0.0,1.0,0.0,1.0,1.0,1.0, 1.0
1106,0.0228,0.132,3.45,0.132,3.45,0.022819176990008103,0.0,0.9997396086789294,-0.0,1.0,0.0,1.0,1.0,1.0, 1.0
1107,0.0228,0.132,3.45,0.132,3.45,0.06857395596267404,0.0,0.9976460357078702,-0.0,1.0,0.0,1.0,1.0,1.0, 1.0
1108,0.0228,0.132,3.45,0.132,3.45,0.11432565836804018,0.0,0.9934433269385398,-0.0,1.0,0.0,1.0,1.0,1.0, 1.0
1109,0.0228,0.132,3.45,0.132,3.45,0.1599485992780141,0.0,0.9871253444163012,-0.0,1.0,0.0,1.0,1.0,1.0, 1.0
1110,0.0228,0.132,3.45,0.132,3.45,0.20533472179453693,0.0,0.9786918064567416,-0.0,1.0,0.0,1.0,1.0,1.0, 1.0
1111,0.0228,0.132,3.45,0.132,3.45,0.2503776898737826,0.0,0.9681482388629687,-0.0,1.0,0.0,1.0,1.0,1.0, 1.0
1112,0.0228,0.132,3.45,0.132,3.45,0.2949649555931318,0.0,0.9555080716414391,-0.0,1.0,0.0,1.0,1.0,1.0, 1.0
1113,0.0228,0.132,3.45,0.132,3.45,0.33897557659408006,0.0,0.9407951734956503,-0.0,1.0,0.0,1.0,1.0,1.0, 1.0
1114,0.0228,0.132,3.45,0.132,3.45,0.38229380763163284,0.0,0.924040824123322,-0.0,1.0,0.0,1.0,1.0,1.0, 1.0
1115,0.0228,0.132,3.45,0.132,3.45,0.42480193303444425,0.0,0.905286318073017,-0.0,1.0,0.0,1.0,1.0,1.0, 1.0
1116,0.0228,0.132,3.45,0.132,3.45,0.46638057604054695,0.0,0.8845841725308494,-0.0,1.0,0.0,1.0,1.0,1.0, 1.0
1117,0.0228,0.132,3.45,0.132,3.45,0.5069268590664653,0.0,0.8619890715995232,-0.0,1.0,0.0,1.0,1.0,1.0, 1.0
1118,0.0228,0.132,3.45,0.132,3.45,0.5463257547531313,0.0,0.8375727847139146,-0.0,1.0,0.0,1.0,1.0,1.0, 1.0
1119,0.0228,0.132,3.45,0.132,3.45,0.584475310369548,0.0,0.8114114933672191,-0.0,1.0,0.0,1.0,1.0,1.0, 1.0
1120,0.0228,0.132,3.45,0.132,3.45,0.6212893905625889,0.0,0.7835811975630649,-0.0,1.0,0.0,1.0,1.0,1.0, 1.0
1121,0.0228,0.132,3.45,0.132,3.45,0.6567095795579612,0.0,0.7541435726151924,-0.0,1.0,0.0,1.0,1.0,1.0, 1.0
1122,0.0228,0.132,3.45,0.132,3.45,0.6906802690100029,0.0,0.7231602630124736,-0.0,1.0,0.0,1.0,1.0,1.0, 1.0
1123,0.0228,0.132,3.45,0.132,3.45,0.022914672915398112,0.0,0.9997374244096199,-0.0,1.0,0.0,1.0,1.0,1.0, 1.0
1124,0.0228,0.132,3.45,0.132,3.45,0.06882055218021065,0.0,0.9976290551089674,-0.0,1.0,0.0,1.0,1.0,1.0, 1.0
1125,0.0228,0.132,3.45,0.132,3.45,0.11467251539037174,0.0,0.9934033492061746,-0.0,1.0,0.0,1.0,1.0,1.0, 1.0
1126,0.0228,0.132,3.45,0.132,3.45,0.16034927983848182,0.0,0.9870603367855889,-0.0,1.0,0.0,1.0,1.0,1.0, 1.0
1127,0.0228,0.132,3.45,0.132,3.45,0.20574549767793135,0.0,0.9786055334940941,-0.0,1.0,0.0,1.0,1.0,1.0, 1.0
1128,0.0228,0.132,3.45,0.132,3.45,0.25075899270930935,0.0,0.9680495480993794,-0.0,1.0,0.0,1.0,1.0,1.0, 1.0
1129,0.0228,0.132,3.45,0.132,3.45,0.2952835744332371,0.0,0.9554096559434235,-0.0,1.0,0.0,1.0,1.0,1.0, 1.0
1130,0.0228,0.132,3.45,0.132,3.45,0.33920849070220244,0.0,0.9407112202134796,-0.0,1.0,0.0,1.0,1.0,1.0, 1.0
1131,0.0228,0.132,3.45,0.132,3.45,0.3824277994230865,0.0,0.9239853777135303,-0.0,1.0,0.0,1.0,1.0,1.0, 1.0
1132,0.0228,0.132,3.45,0.132,3.45,0.42483980055919085,0.0,0.9052685479242207,-0.0,1.0,0.0,1.0,1.0,1.0, 1.0
1133,0.0228,0.132,3.45,0.132,3.45,0.4663321259535611,0.0,0.884609715243752,-0.0,1.0,0.0,1.0,1.0,1.0, 1.0
1134,0.0228,0.132,3.45,0.132,3.45,0.5068020279155232,0.0,0.8620624713445734,-0.0,1.0,0.0,1.0,1.0,1.0, 1.0
1135,0.0228,0.132,3.45,0.132,3.45,0.5461503226900456,0.0,0.837687188051458,-0.0,1.0,0.0,1.0,1.0,1.0, 1.0
1136,0.0228,0.132,3.45,0.132,3.45,0.5842897081192163,0.0,0.8115451540031281,-0.0,1.0,0.0,1.0,1.0,1.0, 1.0
1137,0.0228,0.132,3.45,0.132,3.45,0.62112962887417,0.0,0.7837078436092342,-0.0,1.0,0.0,1.0,1.0,1.0, 1.0
1138,0.0228,0.132,3.45,0.132,3.45,0.6565956292069011,0.0,0.7542427856508763,-0.0,1.0,0.0,1.0,1.0,1.0, 1.0
1139,0.0228,0.132,3.45,0.132,3.45,0.6906377001116654,0.0,0.7232009175771761,-0.0,1.0,0.0,1.0,1.0,1.0, 1.0
